Time,Header.seq,Header.stamp.secs,Header.stamp.nsecs,Header.frame_id,IMU.header.seq,IMU.header.stamp.secs,IMU.header.stamp.nsecs,IMU.header.frame_id,IMU.orientation.x,IMU.orientation.y,IMU.orientation.z,IMU.orientation.w,IMU.orientation_covariance,IMU.angular_velocity.x,IMU.angular_velocity.y,IMU.angular_velocity.z,IMU.angular_velocity_covariance,IMU.linear_acceleration.x,IMU.linear_acceleration.y,IMU.linear_acceleration.z,IMU.linear_acceleration_covariance,MagField.header.seq,MagField.header.stamp.secs,MagField.header.stamp.nsecs,MagField.header.frame_id,MagField.magnetic_field.x,MagField.magnetic_field.y,MagField.magnetic_field.z,MagField.magnetic_field_covariance,raw
1700075610.1019955,0,1700075610,96237421,IMU1_Frame,0,1700075610,96237421,IMU1_Frame,-0.031318265234404216,-0.002038854433389248,0.9986912290699205,0.040383639188646535,"(0.0, 0.0, 0.0, 0.0, 0.0, 0.0, 0.0, 0.0, 0.0)",-0.000669,-0.000511,0.000483,"(0.0, 0.0, 0.0, 0.0, 0.0, 0.0, 0.0, 0.0, 0.0)",0.628,0.075,-9.622,"(0.0, 0.0, 0.0, 0.0, 0.0, 0.0, 0.0, 0.0, 0.0)",0,1700075610,96237421,IMU1_Frame,-2.3860000000000002e-05,-1.46e-06,3.129e-05,"(0.0, 0.0, 0.0, 0.0, 0.0, 0.0, 0.0, 0.0, 0.0)","$VNYMR,+175.357,+003.577,-000.379,-00.2386,-00.0146,+00.3129,+00.628,+00.075,-09.622,-00.000669,-00.000511,+00.000483*60
"
1700075610.128345,0,1700075610,121277093,IMU1_Frame,0,1700075610,121277093,IMU1_Frame,-0.03131787738209437,-0.002030685808617018,0.9986919515043828,0.040366482033912965,"(0.0, 0.0, 0.0, 0.0, 0.0, 0.0, 0.0, 0.0, 0.0)",-9.6e-05,-2e-05,-0.000718,"(0.0, 0.0, 0.0, 0.0, 0.0, 0.0, 0.0, 0.0, 0.0)",0.596,0.068,-9.671,"(0.0, 0.0, 0.0, 0.0, 0.0, 0.0, 0.0, 0.0, 0.0)",0,1700075610,121277093,IMU1_Frame,-2.387e-05,-1.72e-06,3.137e-05,"(0.0, 0.0, 0.0, 0.0, 0.0, 0.0, 0.0, 0.0, 0.0)","$VNYMR,+175.359,+003.577,-000.378,-00.2387,-00.0172,+00.3137,+00.596,+00.068,-09.671,-00.000096,-00.000020,-00.000718*6C
"
1700075610.1537323,0,1700075610,146591901,IMU1_Frame,0,1700075610,146591901,IMU1_Frame,-0.03131856403096457,-0.0020483895771814253,0.9986922681313318,0.040357220195079924,"(0.0, 0.0, 0.0, 0.0, 0.0, 0.0, 0.0, 0.0, 0.0)",-0.001066,0.000463,-0.000375,"(0.0, 0.0, 0.0, 0.0, 0.0, 0.0, 0.0, 0.0, 0.0)",0.595,0.075,-9.612,"(0.0, 0.0, 0.0, 0.0, 0.0, 0.0, 0.0, 0.0, 0.0)",0,1700075610,146591901,IMU1_Frame,-2.393e-05,-1.72e-06,3.129e-05,"(0.0, 0.0, 0.0, 0.0, 0.0, 0.0, 0.0, 0.0, 0.0)","$VNYMR,+175.360,+003.577,-000.380,-00.2393,-00.0172,+00.3129,+00.595,+00.075,-09.612,-00.001066,+00.000463,-00.000375*65
"
1700075610.176877,0,1700075610,171400785,IMU1_Frame,0,1700075610,171400785,IMU1_Frame,-0.03131854615420081,-0.002048662883133082,0.9986926202764892,0.04034850495939715,"(0.0, 0.0, 0.0, 0.0, 0.0, 0.0, 0.0, 0.0, 0.0)",-0.000177,0.000214,0.001508,"(0.0, 0.0, 0.0, 0.0, 0.0, 0.0, 0.0, 0.0, 0.0)",0.607,0.087,-9.626,"(0.0, 0.0, 0.0, 0.0, 0.0, 0.0, 0.0, 0.0, 0.0)",0,1700075610,171400785,IMU1_Frame,-2.3860000000000002e-05,-1.33e-06,3.166e-05,"(0.0, 0.0, 0.0, 0.0, 0.0, 0.0, 0.0, 0.0, 0.0)","$VNYMR,+175.361,+003.577,-000.380,-00.2386,-00.0133,+00.3166,+00.607,+00.087,-09.626,-00.000177,+00.000214,+00.001508*61
"
1700075610.2041698,0,1700075610,196472406,IMU1_Frame,0,1700075610,196472406,IMU1_Frame,-0.03131889826013819,-0.0020573781202745615,0.9986926023605057,0.040348231651987136,"(0.0, 0.0, 0.0, 0.0, 0.0, 0.0, 0.0, 0.0, 0.0)",-0.000578,-0.000236,0.001574,"(0.0, 0.0, 0.0, 0.0, 0.0, 0.0, 0.0, 0.0, 0.0)",0.612,0.101,-9.682,"(0.0, 0.0, 0.0, 0.0, 0.0, 0.0, 0.0, 0.0, 0.0)",0,1700075610,196472406,IMU1_Frame,-2.399e-05,-1.26e-06,3.121e-05,"(0.0, 0.0, 0.0, 0.0, 0.0, 0.0, 0.0, 0.0, 0.0)","$VNYMR,+175.361,+003.577,-000.381,-00.2399,-00.0126,+00.3121,+00.612,+00.101,-09.682,-00.000578,-00.000236,+00.001574*6A
"
1700075610.226087,0,1700075610,221315383,IMU1_Frame,0,1700075610,221315383,IMU1_Frame,-0.03132757751609317,-0.002057570975513503,0.9986930354176317,0.04033076117520022,"(0.0, 0.0, 0.0, 0.0, 0.0, 0.0, 0.0, 0.0, 0.0)",-0.000772,-4.7e-05,0.001286,"(0.0, 0.0, 0.0, 0.0, 0.0, 0.0, 0.0, 0.0, 0.0)",0.632,0.061,-9.695,"(0.0, 0.0, 0.0, 0.0, 0.0, 0.0, 0.0, 0.0, 0.0)",0,1700075610,221315383,IMU1_Frame,-2.3860000000000002e-05,-1.26e-06,3.137e-05,"(0.0, 0.0, 0.0, 0.0, 0.0, 0.0, 0.0, 0.0, 0.0)","$VNYMR,+175.363,+003.578,-000.381,-00.2386,-00.0126,+00.3137,+00.632,+00.061,-09.695,-00.000772,-00.000047,+00.001286*6B
"
1700075610.254084,0,1700075610,246252059,IMU1_Frame,0,1700075610,246252059,IMU1_Frame,-0.03133627472865464,-0.002057490673679406,0.9986931162552327,0.04032200593560045,"(0.0, 0.0, 0.0, 0.0, 0.0, 0.0, 0.0, 0.0, 0.0)",-0.000433,-0.000866,-0.000188,"(0.0, 0.0, 0.0, 0.0, 0.0, 0.0, 0.0, 0.0, 0.0)",0.648,0.013,-9.724,"(0.0, 0.0, 0.0, 0.0, 0.0, 0.0, 0.0, 0.0, 0.0)",0,1700075610,246252059,IMU1_Frame,-2.374e-05,-1.33e-06,3.137e-05,"(0.0, 0.0, 0.0, 0.0, 0.0, 0.0, 0.0, 0.0, 0.0)","$VNYMR,+175.364,+003.579,-000.381,-00.2374,-00.0133,+00.3137,+00.648,+00.013,-09.724,-00.000433,-00.000866,-00.000188*60
"
1700075610.2949305,0,1700075610,271532297,IMU1_Frame,0,1700075610,271532297,IMU1_Frame,-0.03134426833888543,-0.0020399800388239686,0.9986932326965037,0.04031379776141538,"(0.0, 0.0, 0.0, 0.0, 0.0, 0.0, 0.0, 0.0, 0.0)",-0.000232,-0.000256,2e-05,"(0.0, 0.0, 0.0, 0.0, 0.0, 0.0, 0.0, 0.0, 0.0)",0.619,0.041,-9.699,"(0.0, 0.0, 0.0, 0.0, 0.0, 0.0, 0.0, 0.0, 0.0)",0,1700075610,271532297,IMU1_Frame,-2.405e-05,-1.5800000000000001e-06,3.1280000000000005e-05,"(0.0, 0.0, 0.0, 0.0, 0.0, 0.0, 0.0, 0.0, 0.0)","$VNYMR,+175.365,+003.580,-000.379,-00.2405,-00.0158,+00.3128,+00.619,+00.041,-09.699,-00.000232,-00.000256,+00.000020*6D
"
1700075610.3386233,0,1700075610,296411275,IMU1_Frame,0,1700075610,296411275,IMU1_Frame,-0.03133518363183889,-0.002031891850769363,0.9986938733919387,0.04030539581336559,"(0.0, 0.0, 0.0, 0.0, 0.0, 0.0, 0.0, 0.0, 0.0)",-0.00039,-0.00075,0.000493,"(0.0, 0.0, 0.0, 0.0, 0.0, 0.0, 0.0, 0.0, 0.0)",0.595,0.038,-9.695,"(0.0, 0.0, 0.0, 0.0, 0.0, 0.0, 0.0, 0.0, 0.0)",0,1700075610,296411275,IMU1_Frame,-2.399e-05,-1.26e-06,3.1280000000000005e-05,"(0.0, 0.0, 0.0, 0.0, 0.0, 0.0, 0.0, 0.0, 0.0)","$VNYMR,+175.366,+003.579,-000.378,-00.2399,-00.0126,+00.3128,+00.595,+00.038,-09.695,-00.000390,-00.000750,+00.000493*61
"
1700075610.3386602,0,1700075610,321120738,IMU1_Frame,0,1700075610,321120738,IMU1_Frame,-0.031326116722703364,-0.0020235301274088716,0.998694162175209,0.04030570895116742,"(0.0, 0.0, 0.0, 0.0, 0.0, 0.0, 0.0, 0.0, 0.0)",-0.000215,-0.000383,7.8e-05,"(0.0, 0.0, 0.0, 0.0, 0.0, 0.0, 0.0, 0.0, 0.0)",0.568,0.037,-9.696,"(0.0, 0.0, 0.0, 0.0, 0.0, 0.0, 0.0, 0.0, 0.0)",0,1700075610,321120738,IMU1_Frame,-2.374e-05,-1.66e-06,3.116e-05,"(0.0, 0.0, 0.0, 0.0, 0.0, 0.0, 0.0, 0.0, 0.0)","$VNYMR,+175.366,+003.578,-000.377,-00.2374,-00.0166,+00.3116,+00.568,+00.037,-09.696,-00.000215,-00.000383,+00.000078*6C
"
1700075610.3868165,0,1700075610,346233129,IMU1_Frame,0,1700075610,346233129,IMU1_Frame,-0.03130833462597665,-0.0020155219212086746,0.9986947217532115,0.04030606153680206,"(0.0, 0.0, 0.0, 0.0, 0.0, 0.0, 0.0, 0.0, 0.0)",0.00016,-0.001531,-0.000116,"(0.0, 0.0, 0.0, 0.0, 0.0, 0.0, 0.0, 0.0, 0.0)",0.556,0.063,-9.65,"(0.0, 0.0, 0.0, 0.0, 0.0, 0.0, 0.0, 0.0, 0.0)",0,1700075610,346233129,IMU1_Frame,-2.412e-05,-1.7100000000000001e-06,3.135e-05,"(0.0, 0.0, 0.0, 0.0, 0.0, 0.0, 0.0, 0.0, 0.0)","$VNYMR,+175.366,+003.576,-000.376,-00.2412,-00.0171,+00.3135,+00.556,+00.063,-09.650,+00.000160,-00.001531,-00.000116*63
"
1700075610.386867,0,1700075610,371249675,IMU1_Frame,0,1700075610,371249675,IMU1_Frame,-0.03128217146609871,-0.0020168554754067545,0.9986958858186472,0.04029746507244404,"(0.0, 0.0, 0.0, 0.0, 0.0, 0.0, 0.0, 0.0, 0.0)",-0.001646,-0.000536,7.9e-05,"(0.0, 0.0, 0.0, 0.0, 0.0, 0.0, 0.0, 0.0, 0.0)",0.574,0.059,-9.601,"(0.0, 0.0, 0.0, 0.0, 0.0, 0.0, 0.0, 0.0, 0.0)",0,1700075610,371249675,IMU1_Frame,-2.399e-05,-1.59e-06,3.136e-05,"(0.0, 0.0, 0.0, 0.0, 0.0, 0.0, 0.0, 0.0, 0.0)","$VNYMR,+175.367,+003.573,-000.376,-00.2399,-00.0159,+00.3136,+00.574,+00.059,-09.601,-00.001646,-00.000536,+00.000079*6B
"
1700075610.4318483,0,1700075610,396123170,IMU1_Frame,0,1700075610,396123170,IMU1_Frame,-0.03127377256842041,-0.0020264700195485874,0.9986968419812114,0.04027980120797383,"(0.0, 0.0, 0.0, 0.0, 0.0, 0.0, 0.0, 0.0, 0.0)",-0.001377,0.0003,0.001597,"(0.0, 0.0, 0.0, 0.0, 0.0, 0.0, 0.0, 0.0, 0.0)",0.578,0.076,-9.63,"(0.0, 0.0, 0.0, 0.0, 0.0, 0.0, 0.0, 0.0, 0.0)",0,1700075610,396123170,IMU1_Frame,-2.387e-05,-1.65e-06,3.166e-05,"(0.0, 0.0, 0.0, 0.0, 0.0, 0.0, 0.0, 0.0, 0.0)","$VNYMR,+175.369,+003.572,-000.377,-00.2387,-00.0165,+00.3166,+00.578,+00.076,-09.630,-00.001377,+00.000300,+00.001597*65
"
1700075610.4319186,0,1700075610,421297311,IMU1_Frame,0,1700075610,421297311,IMU1_Frame,-0.03126609396179948,-0.00205324199196633,0.998697410597955,0.04027030705909688,"(0.0, 0.0, 0.0, 0.0, 0.0, 0.0, 0.0, 0.0, 0.0)",-0.001718,8.8e-05,0.00051,"(0.0, 0.0, 0.0, 0.0, 0.0, 0.0, 0.0, 0.0, 0.0)",0.598,0.093,-9.637,"(0.0, 0.0, 0.0, 0.0, 0.0, 0.0, 0.0, 0.0, 0.0)",0,1700075610,421297311,IMU1_Frame,-2.374e-05,-1.26e-06,3.115e-05,"(0.0, 0.0, 0.0, 0.0, 0.0, 0.0, 0.0, 0.0, 0.0)","$VNYMR,+175.370,+003.571,-000.380,-00.2374,-00.0126,+00.3115,+00.598,+00.093,-09.637,-00.001718,+00.000088,+00.000510*6B
"
1700075610.4745297,0,1700075610,446058988,IMU1_Frame,0,1700075610,446058988,IMU1_Frame,-0.03126677873526892,-0.002070945403895353,0.9986977259919464,0.04026104607643743,"(0.0, 0.0, 0.0, 0.0, 0.0, 0.0, 0.0, 0.0, 0.0)",-0.000191,-0.000275,0.000538,"(0.0, 0.0, 0.0, 0.0, 0.0, 0.0, 0.0, 0.0, 0.0)",0.619,0.11,-9.626,"(0.0, 0.0, 0.0, 0.0, 0.0, 0.0, 0.0, 0.0, 0.0)",0,1700075610,446058988,IMU1_Frame,-2.387e-05,-1.59e-06,3.137e-05,"(0.0, 0.0, 0.0, 0.0, 0.0, 0.0, 0.0, 0.0, 0.0)","$VNYMR,+175.371,+003.571,-000.382,-00.2387,-00.0159,+00.3137,+00.619,+00.110,-09.626,-00.000191,-00.000275,+00.000538*66
"
1700075610.4745433,0,1700075610,471142292,IMU1_Frame,0,1700075610,471142292,IMU1_Frame,-0.03128559612975427,-0.002105373218440828,0.9986974632508578,0.040251158675477114,"(0.0, 0.0, 0.0, 0.0, 0.0, 0.0, 0.0, 0.0, 0.0)",3.3e-05,-0.000277,0.000808,"(0.0, 0.0, 0.0, 0.0, 0.0, 0.0, 0.0, 0.0, 0.0)",0.629,0.076,-9.602,"(0.0, 0.0, 0.0, 0.0, 0.0, 0.0, 0.0, 0.0, 0.0)",0,1700075610,471142292,IMU1_Frame,-2.393e-05,-1.59e-06,3.1440000000000004e-05,"(0.0, 0.0, 0.0, 0.0, 0.0, 0.0, 0.0, 0.0, 0.0)","$VNYMR,+175.372,+003.573,-000.386,-00.2393,-00.0159,+00.3144,+00.629,+00.076,-09.602,+00.000033,-00.000277,+00.000808*65
"
1700075610.522737,0,1700075610,496049880,IMU1_Frame,0,1700075610,496049880,IMU1_Frame,-0.03129466259012299,-0.002113735406446005,0.9986971741592964,0.04025084523631701,"(0.0, 0.0, 0.0, 0.0, 0.0, 0.0, 0.0, 0.0, 0.0)",0.00209,-0.001224,0.000162,"(0.0, 0.0, 0.0, 0.0, 0.0, 0.0, 0.0, 0.0, 0.0)",0.639,0.079,-9.67,"(0.0, 0.0, 0.0, 0.0, 0.0, 0.0, 0.0, 0.0, 0.0)",0,1700075610,496049880,IMU1_Frame,-2.3919999999999998e-05,-1.06e-06,3.136e-05,"(0.0, 0.0, 0.0, 0.0, 0.0, 0.0, 0.0, 0.0, 0.0)","$VNYMR,+175.372,+003.574,-000.387,-00.2392,-00.0106,+00.3136,+00.639,+00.079,-09.670,+00.002090,-00.001224,+00.000162*6F
"
1700075610.570696,0,1700075610,521191596,IMU1_Frame,0,1700075610,521191596,IMU1_Frame,-0.03132042020679397,-0.0021045075061156366,0.9986970824197753,0.04023356673792614,"(0.0, 0.0, 0.0, 0.0, 0.0, 0.0, 0.0, 0.0, 0.0)",0.00098,0.001219,0.000686,"(0.0, 0.0, 0.0, 0.0, 0.0, 0.0, 0.0, 0.0, 0.0)",0.627,0.076,-9.67,"(0.0, 0.0, 0.0, 0.0, 0.0, 0.0, 0.0, 0.0, 0.0)",0,1700075610,521191596,IMU1_Frame,-2.393e-05,-1.65e-06,3.1219999999999996e-05,"(0.0, 0.0, 0.0, 0.0, 0.0, 0.0, 0.0, 0.0, 0.0)","$VNYMR,+175.374,+003.577,-000.386,-00.2393,-00.0165,+00.3122,+00.627,+00.076,-09.670,+00.000980,+00.001219,+00.000686*65
"
1700075610.5707185,0,1700075610,547091245,IMU1_Frame,0,1700075610,547091245,IMU1_Frame,-0.031337499501641546,-0.0020950863593123927,0.9986965586874402,0.04023375950611893,"(0.0, 0.0, 0.0, 0.0, 0.0, 0.0, 0.0, 0.0, 0.0)",0.000177,0.000841,0.000528,"(0.0, 0.0, 0.0, 0.0, 0.0, 0.0, 0.0, 0.0, 0.0)",0.627,0.051,-9.666,"(0.0, 0.0, 0.0, 0.0, 0.0, 0.0, 0.0, 0.0, 0.0)",0,1700075610,547091245,IMU1_Frame,-2.399e-05,-1.52e-06,3.151e-05,"(0.0, 0.0, 0.0, 0.0, 0.0, 0.0, 0.0, 0.0, 0.0)","$VNYMR,+175.374,+003.579,-000.385,-00.2399,-00.0152,+00.3151,+00.627,+00.051,-09.666,+00.000177,+00.000841,+00.000528*61
"
1700075610.6147563,0,1700075610,571034193,IMU1_Frame,0,1700075610,571034193,IMU1_Frame,-0.03135385851629746,-0.002068508300939191,0.9986964218863443,0.040225784528853815,"(0.0, 0.0, 0.0, 0.0, 0.0, 0.0, 0.0, 0.0, 0.0)",5.9e-05,0.000763,4.1e-05,"(0.0, 0.0, 0.0, 0.0, 0.0, 0.0, 0.0, 0.0, 0.0)",0.626,0.021,-9.605,"(0.0, 0.0, 0.0, 0.0, 0.0, 0.0, 0.0, 0.0, 0.0)",0,1700075610,571034193,IMU1_Frame,-2.399e-05,-1.3899999999999998e-06,3.129e-05,"(0.0, 0.0, 0.0, 0.0, 0.0, 0.0, 0.0, 0.0, 0.0)","$VNYMR,+175.375,+003.581,-000.382,-00.2399,-00.0139,+00.3129,+00.626,+00.021,-09.605,+00.000059,+00.000763,+00.000041*69
"
1700075610.6148038,0,1700075610,596217632,IMU1_Frame,0,1700075610,596217632,IMU1_Frame,-0.0313611695496697,-0.0020332943748936783,0.9986962221645657,0.040226839208248356,"(0.0, 0.0, 0.0, 0.0, 0.0, 0.0, 0.0, 0.0, 0.0)",0.000566,3.6e-05,-0.000381,"(0.0, 0.0, 0.0, 0.0, 0.0, 0.0, 0.0, 0.0, 0.0)",0.609,0.024,-9.614,"(0.0, 0.0, 0.0, 0.0, 0.0, 0.0, 0.0, 0.0, 0.0)",0,1700075610,596217632,IMU1_Frame,-2.387e-05,-1.59e-06,3.108e-05,"(0.0, 0.0, 0.0, 0.0, 0.0, 0.0, 0.0, 0.0, 0.0)","$VNYMR,+175.375,+003.582,-000.378,-00.2387,-00.0159,+00.3108,+00.609,+00.024,-09.614,+00.000566,+00.000036,-00.000381*6A
"
1700075610.662683,0,1700075610,621032714,IMU1_Frame,0,1700075610,621032714,IMU1_Frame,-0.031360098885865086,-0.0020074222368099554,0.9986966260683734,0.040218944957316344,"(0.0, 0.0, 0.0, 0.0, 0.0, 0.0, 0.0, 0.0, 0.0)",-0.000274,-0.00061,0.0001,"(0.0, 0.0, 0.0, 0.0, 0.0, 0.0, 0.0, 0.0, 0.0)",0.62,0.04,-9.634,"(0.0, 0.0, 0.0, 0.0, 0.0, 0.0, 0.0, 0.0, 0.0)",0,1700075610,621032714,IMU1_Frame,-2.3860000000000002e-05,-1.13e-06,3.129e-05,"(0.0, 0.0, 0.0, 0.0, 0.0, 0.0, 0.0, 0.0, 0.0)","$VNYMR,+175.376,+003.582,-000.375,-00.2386,-00.0113,+00.3129,+00.620,+00.040,-09.634,-00.000274,-00.000610,+00.000100*68
"
1700075610.6627142,0,1700075610,646049499,IMU1_Frame,0,1700075610,646049499,IMU1_Frame,-0.031368112127736554,-0.0019896389366806,0.9986963895426976,0.04021945291552021,"(0.0, 0.0, 0.0, 0.0, 0.0, 0.0, 0.0, 0.0, 0.0)",-0.00076,-0.000411,-0.000564,"(0.0, 0.0, 0.0, 0.0, 0.0, 0.0, 0.0, 0.0, 0.0)",0.581,0.037,-9.678,"(0.0, 0.0, 0.0, 0.0, 0.0, 0.0, 0.0, 0.0, 0.0)",0,1700075610,646049499,IMU1_Frame,-2.393e-05,-1.79e-06,3.1440000000000004e-05,"(0.0, 0.0, 0.0, 0.0, 0.0, 0.0, 0.0, 0.0, 0.0)","$VNYMR,+175.376,+003.583,-000.373,-00.2393,-00.0179,+00.3144,+00.581,+00.037,-09.678,-00.000760,-00.000411,-00.000564*6F
"
1700075610.710571,0,1700075610,671381235,IMU1_Frame,0,1700075610,671381235,IMU1_Frame,-0.03135902865450898,-0.001981550078820407,0.9986970292259593,0.04021105067483861,"(0.0, 0.0, 0.0, 0.0, 0.0, 0.0, 0.0, 0.0, 0.0)",-0.001608,-9.3e-05,5.4e-05,"(0.0, 0.0, 0.0, 0.0, 0.0, 0.0, 0.0, 0.0, 0.0)",0.592,0.045,-9.64,"(0.0, 0.0, 0.0, 0.0, 0.0, 0.0, 0.0, 0.0, 0.0)",0,1700075610,671381235,IMU1_Frame,-2.399e-05,-1.65e-06,3.129e-05,"(0.0, 0.0, 0.0, 0.0, 0.0, 0.0, 0.0, 0.0, 0.0)","$VNYMR,+175.377,+003.582,-000.372,-00.2399,-00.0165,+00.3129,+00.592,+00.045,-09.640,-00.001608,-00.000093,+00.000054*6E
"
1700075610.710603,0,1700075610,695950269,IMU1_Frame,0,1700075610,695950269,IMU1_Frame,-0.03134228260126671,-0.001999959506110366,0.9986978879405276,0.04020186695224085,"(0.0, 0.0, 0.0, 0.0, 0.0, 0.0, 0.0, 0.0, 0.0)",-0.000863,0.001294,0.001145,"(0.0, 0.0, 0.0, 0.0, 0.0, 0.0, 0.0, 0.0, 0.0)",0.588,0.072,-9.67,"(0.0, 0.0, 0.0, 0.0, 0.0, 0.0, 0.0, 0.0, 0.0)",0,1700075610,695950269,IMU1_Frame,-2.393e-05,-1.72e-06,3.129e-05,"(0.0, 0.0, 0.0, 0.0, 0.0, 0.0, 0.0, 0.0, 0.0)","$VNYMR,+175.378,+003.580,-000.374,-00.2393,-00.0172,+00.3129,+00.588,+00.072,-09.670,-00.000863,+00.001294,+00.001145*65
"
1700075610.7545762,0,1700075610,720957517,IMU1_Frame,0,1700075610,720957517,IMU1_Frame,-0.0313262554671703,-0.0020355258669632723,0.9986983597779326,0.04020085235063605,"(0.0, 0.0, 0.0, 0.0, 0.0, 0.0, 0.0, 0.0, 0.0)",-0.000826,0.00041,-0.000215,"(0.0, 0.0, 0.0, 0.0, 0.0, 0.0, 0.0, 0.0, 0.0)",0.586,0.089,-9.662,"(0.0, 0.0, 0.0, 0.0, 0.0, 0.0, 0.0, 0.0, 0.0)",0,1700075610,720957517,IMU1_Frame,-2.4e-05,-2.0500000000000003e-06,3.1440000000000004e-05,"(0.0, 0.0, 0.0, 0.0, 0.0, 0.0, 0.0, 0.0, 0.0)","$VNYMR,+175.378,+003.578,-000.378,-00.2400,-00.0205,+00.3144,+00.586,+00.089,-09.662,-00.000826,+00.000410,-00.000215*69
"
1700075610.7546203,0,1700075610,746166944,IMU1_Frame,0,1700075610,746166944,IMU1_Frame,-0.031310246363406596,-0.0020708190291965243,0.9986984791971972,0.04020855419455472,"(0.0, 0.0, 0.0, 0.0, 0.0, 0.0, 0.0, 0.0, 0.0)",-0.000176,-0.001321,0.000112,"(0.0, 0.0, 0.0, 0.0, 0.0, 0.0, 0.0, 0.0, 0.0)",0.593,0.111,-9.665,"(0.0, 0.0, 0.0, 0.0, 0.0, 0.0, 0.0, 0.0, 0.0)",0,1700075610,746166944,IMU1_Frame,-2.387e-05,-1.66e-06,3.13e-05,"(0.0, 0.0, 0.0, 0.0, 0.0, 0.0, 0.0, 0.0, 0.0)","$VNYMR,+175.377,+003.576,-000.382,-00.2387,-00.0166,+00.3130,+00.593,+00.111,-09.665,-00.000176,-00.001321,+00.000112*6F
"
1700075610.7986257,0,1700075610,772051095,IMU1_Frame,0,1700075610,772051095,IMU1_Frame,-0.03130221468698762,-0.002088875473366942,0.9986990645896541,0.04019933261506225,"(0.0, 0.0, 0.0, 0.0, 0.0, 0.0, 0.0, 0.0, 0.0)",0.000488,0.001956,0.00035,"(0.0, 0.0, 0.0, 0.0, 0.0, 0.0, 0.0, 0.0, 0.0)",0.584,0.079,-9.676,"(0.0, 0.0, 0.0, 0.0, 0.0, 0.0, 0.0, 0.0, 0.0)",0,1700075610,772051095,IMU1_Frame,-2.393e-05,-1.79e-06,3.137e-05,"(0.0, 0.0, 0.0, 0.0, 0.0, 0.0, 0.0, 0.0, 0.0)","$VNYMR,+175.378,+003.575,-000.384,-00.2393,-00.0179,+00.3137,+00.584,+00.079,-09.676,+00.000488,+00.001956,+00.000350*68
"
1700075610.8026106,0,1700075610,795956850,IMU1_Frame,0,1700075610,795956850,IMU1_Frame,-0.031285467461451,-0.002107284342824668,0.998699920190868,0.040190151644037574,"(0.0, 0.0, 0.0, 0.0, 0.0, 0.0, 0.0, 0.0, 0.0)",0.000351,-0.000238,0.00035,"(0.0, 0.0, 0.0, 0.0, 0.0, 0.0, 0.0, 0.0, 0.0)",0.601,0.071,-9.659,"(0.0, 0.0, 0.0, 0.0, 0.0, 0.0, 0.0, 0.0, 0.0)",0,1700075610,795956850,IMU1_Frame,-2.405e-05,-1.45e-06,3.136e-05,"(0.0, 0.0, 0.0, 0.0, 0.0, 0.0, 0.0, 0.0, 0.0)","$VNYMR,+175.379,+003.573,-000.386,-00.2405,-00.0145,+00.3136,+00.601,+00.071,-09.659,+00.000351,-00.000238,+00.000350*67
"
1700075610.846675,0,1700075610,820976018,IMU1_Frame,0,1700075610,820976018,IMU1_Frame,-0.031267686275489634,-0.0020992741499227586,0.9987004796928162,0.040190505151838016,"(0.0, 0.0, 0.0, 0.0, 0.0, 0.0, 0.0, 0.0, 0.0)",-0.000114,0.000211,0.000633,"(0.0, 0.0, 0.0, 0.0, 0.0, 0.0, 0.0, 0.0, 0.0)",0.571,0.049,-9.662,"(0.0, 0.0, 0.0, 0.0, 0.0, 0.0, 0.0, 0.0, 0.0)",0,1700075610,820976018,IMU1_Frame,-2.387e-05,-1.66e-06,3.137e-05,"(0.0, 0.0, 0.0, 0.0, 0.0, 0.0, 0.0, 0.0, 0.0)","$VNYMR,+175.379,+003.571,-000.385,-00.2387,-00.0166,+00.3137,+00.571,+00.049,-09.662,-00.000114,+00.000211,+00.000633*64
"
1700075610.890685,0,1700075610,845955610,IMU1_Frame,0,1700075610,845955610,IMU1_Frame,-0.03126733554597758,-0.0020905588440369924,0.9987004979744113,0.04019077801234516,"(0.0, 0.0, 0.0, 0.0, 0.0, 0.0, 0.0, 0.0, 0.0)",-0.001442,-0.000465,-0.000242,"(0.0, 0.0, 0.0, 0.0, 0.0, 0.0, 0.0, 0.0, 0.0)",0.629,0.031,-9.643,"(0.0, 0.0, 0.0, 0.0, 0.0, 0.0, 0.0, 0.0, 0.0)",0,1700075610,845955610,IMU1_Frame,-2.3860000000000002e-05,-1.33e-06,3.1219999999999996e-05,"(0.0, 0.0, 0.0, 0.0, 0.0, 0.0, 0.0, 0.0, 0.0)","$VNYMR,+175.379,+003.571,-000.384,-00.2386,-00.0133,+00.3122,+00.629,+00.031,-09.643,-00.001442,-00.000465,-00.000242*62
"
1700075610.8907366,0,1700075610,870996475,IMU1_Frame,0,1700075610,870996475,IMU1_Frame,-0.03128404645495013,-0.002072696142740353,0.9987003438372641,0.04018252838529247,"(0.0, 0.0, 0.0, 0.0, 0.0, 0.0, 0.0, 0.0, 0.0)",0.000477,0.000475,0.000971,"(0.0, 0.0, 0.0, 0.0, 0.0, 0.0, 0.0, 0.0, 0.0)",0.627,0.043,-9.626,"(0.0, 0.0, 0.0, 0.0, 0.0, 0.0, 0.0, 0.0, 0.0)",0,1700075610,870996475,IMU1_Frame,-2.3860000000000002e-05,-1.33e-06,3.1440000000000004e-05,"(0.0, 0.0, 0.0, 0.0, 0.0, 0.0, 0.0, 0.0, 0.0)","$VNYMR,+175.380,+003.573,-000.382,-00.2386,-00.0133,+00.3144,+00.627,+00.043,-09.626,+00.000477,+00.000475,+00.000971*63
"
1700075610.9346385,0,1700075610,896907329,IMU1_Frame,0,1700075610,896907329,IMU1_Frame,-0.03130947289112617,-0.002054481360214819,0.9986999181416462,0.04017423947618001,"(0.0, 0.0, 0.0, 0.0, 0.0, 0.0, 0.0, 0.0, 0.0)",-0.000415,-0.001285,0.000647,"(0.0, 0.0, 0.0, 0.0, 0.0, 0.0, 0.0, 0.0, 0.0)",0.628,0.048,-9.634,"(0.0, 0.0, 0.0, 0.0, 0.0, 0.0, 0.0, 0.0, 0.0)",0,1700075610,896907329,IMU1_Frame,-2.405e-05,-1.52e-06,3.136e-05,"(0.0, 0.0, 0.0, 0.0, 0.0, 0.0, 0.0, 0.0, 0.0)","$VNYMR,+175.381,+003.576,-000.380,-00.2405,-00.0152,+00.3136,+00.628,+00.048,-09.634,-00.000415,-00.001285,+00.000647*6A
"
1700075610.934675,0,1700075610,921015024,IMU1_Frame,0,1700075610,921015024,IMU1_Frame,-0.031335267978270555,-0.002044708893339639,0.9986991229942997,0.04017439329583237,"(0.0, 0.0, 0.0, 0.0, 0.0, 0.0, 0.0, 0.0, 0.0)",-0.000719,0.000963,0.000794,"(0.0, 0.0, 0.0, 0.0, 0.0, 0.0, 0.0, 0.0, 0.0)",0.644,0.069,-9.637,"(0.0, 0.0, 0.0, 0.0, 0.0, 0.0, 0.0, 0.0, 0.0)",0,1700075610,921015024,IMU1_Frame,-2.393e-05,-1.52e-06,3.129e-05,"(0.0, 0.0, 0.0, 0.0, 0.0, 0.0, 0.0, 0.0, 0.0)","$VNYMR,+175.381,+003.579,-000.379,-00.2393,-00.0152,+00.3129,+00.644,+00.069,-09.637,-00.000719,+00.000963,+00.000794*6B
"
1700075610.9786153,0,1700075610,946082115,IMU1_Frame,0,1700075610,946082115,IMU1_Frame,-0.03136977825695289,-0.0020345840520628843,0.9986980556719139,0.04017450780013793,"(0.0, 0.0, 0.0, 0.0, 0.0, 0.0, 0.0, 0.0, 0.0)",-0.000176,-1.5e-05,-0.000376,"(0.0, 0.0, 0.0, 0.0, 0.0, 0.0, 0.0, 0.0, 0.0)",0.622,0.064,-9.656,"(0.0, 0.0, 0.0, 0.0, 0.0, 0.0, 0.0, 0.0, 0.0)",0,1700075610,946082115,IMU1_Frame,-2.38e-05,-1.59e-06,3.108e-05,"(0.0, 0.0, 0.0, 0.0, 0.0, 0.0, 0.0, 0.0, 0.0)","$VNYMR,+175.381,+003.583,-000.378,-00.2380,-00.0159,+00.3108,+00.622,+00.064,-09.656,-00.000176,-00.000015,-00.000376*60
"
1700075610.9806201,0,1700075610,971725225,IMU1_Frame,0,1700075610,971725225,IMU1_Frame,-0.03137046152121122,-0.0020522883800556994,0.9986983705555255,0.0401652450022322,"(0.0, 0.0, 0.0, 0.0, 0.0, 0.0, 0.0, 0.0, 0.0)",0.000237,0.000229,0.001481,"(0.0, 0.0, 0.0, 0.0, 0.0, 0.0, 0.0, 0.0, 0.0)",0.597,0.075,-9.666,"(0.0, 0.0, 0.0, 0.0, 0.0, 0.0, 0.0, 0.0, 0.0)",0,1700075610,971725225,IMU1_Frame,-2.38e-05,-1.2e-06,3.13e-05,"(0.0, 0.0, 0.0, 0.0, 0.0, 0.0, 0.0, 0.0, 0.0)","$VNYMR,+175.382,+003.583,-000.380,-00.2380,-00.0120,+00.3130,+00.597,+00.075,-09.666,+00.000237,+00.000229,+00.001481*6C
"
1700075611.0227306,0,1700075610,996976852,IMU1_Frame,0,1700075610,996976852,IMU1_Frame,-0.03136209681255346,-0.0020613559854687183,0.9986986239950617,0.04016501120865772,"(0.0, 0.0, 0.0, 0.0, 0.0, 0.0, 0.0, 0.0, 0.0)",-3.2e-05,-0.000138,0.00085,"(0.0, 0.0, 0.0, 0.0, 0.0, 0.0, 0.0, 0.0, 0.0)",0.563,0.078,-9.704,"(0.0, 0.0, 0.0, 0.0, 0.0, 0.0, 0.0, 0.0, 0.0)",0,1700075610,996976852,IMU1_Frame,-2.393e-05,-1.8499999999999999e-06,3.1440000000000004e-05,"(0.0, 0.0, 0.0, 0.0, 0.0, 0.0, 0.0, 0.0, 0.0)","$VNYMR,+175.382,+003.582,-000.381,-00.2393,-00.0185,+00.3144,+00.563,+00.078,-09.704,-00.000032,-00.000138,+00.000850*64
"
1700075611.0667777,0,1700075611,21876573,IMU1_Frame,0,1700075611,21876573,IMU1_Frame,-0.03134501688004115,-0.0020707759154477076,0.9986991485083114,0.04016481759788772,"(0.0, 0.0, 0.0, 0.0, 0.0, 0.0, 0.0, 0.0, 0.0)",0.000195,0.000232,0.000472,"(0.0, 0.0, 0.0, 0.0, 0.0, 0.0, 0.0, 0.0, 0.0)",0.596,0.065,-9.636,"(0.0, 0.0, 0.0, 0.0, 0.0, 0.0, 0.0, 0.0, 0.0)",0,1700075611,21876573,IMU1_Frame,-2.399e-05,-1.65e-06,3.1140000000000003e-05,"(0.0, 0.0, 0.0, 0.0, 0.0, 0.0, 0.0, 0.0, 0.0)","$VNYMR,+175.382,+003.580,-000.382,-00.2399,-00.0165,+00.3114,+00.596,+00.065,-09.636,+00.000195,+00.000232,+00.000472*6B
"
1700075611.0668113,0,1700075611,46656370,IMU1_Frame,0,1700075611,46656370,IMU1_Frame,-0.03130980547033104,-0.002063469890717336,0.9987002507208511,0.040165250945677626,"(0.0, 0.0, 0.0, 0.0, 0.0, 0.0, 0.0, 0.0, 0.0)",7.3e-05,-0.000276,0.000755,"(0.0, 0.0, 0.0, 0.0, 0.0, 0.0, 0.0, 0.0, 0.0)",0.564,0.043,-9.657,"(0.0, 0.0, 0.0, 0.0, 0.0, 0.0, 0.0, 0.0, 0.0)",0,1700075611,46656370,IMU1_Frame,-2.381e-05,-1.8599999999999998e-06,3.13e-05,"(0.0, 0.0, 0.0, 0.0, 0.0, 0.0, 0.0, 0.0, 0.0)","$VNYMR,+175.382,+003.576,-000.381,-00.2381,-00.0186,+00.3130,+00.564,+00.043,-09.657,+00.000073,-00.000276,+00.000755*64
"
1700075611.110676,0,1700075611,71705579,IMU1_Frame,0,1700075611,71705579,IMU1_Frame,-0.03130002091942294,-0.00203794943277843,0.998700925741521,0.040157395029834286,"(0.0, 0.0, 0.0, 0.0, 0.0, 0.0, 0.0, 0.0, 0.0)",0.000264,0.000248,0.001225,"(0.0, 0.0, 0.0, 0.0, 0.0, 0.0, 0.0, 0.0, 0.0)",0.582,0.038,-9.642,"(0.0, 0.0, 0.0, 0.0, 0.0, 0.0, 0.0, 0.0, 0.0)",0,1700075611,71705579,IMU1_Frame,-2.393e-05,-1.72e-06,3.115e-05,"(0.0, 0.0, 0.0, 0.0, 0.0, 0.0, 0.0, 0.0, 0.0)","$VNYMR,+175.383,+003.575,-000.378,-00.2393,-00.0172,+00.3115,+00.582,+00.038,-09.642,+00.000264,+00.000248,+00.001225*63
"
1700075611.110705,0,1700075611,96696615,IMU1_Frame,0,1700075611,96696615,IMU1_Frame,-0.03128187191532832,-0.0020214962567543285,0.9987018530779604,0.04014930511235569,"(0.0, 0.0, 0.0, 0.0, 0.0, 0.0, 0.0, 0.0, 0.0)",-0.001112,-0.00066,0.000316,"(0.0, 0.0, 0.0, 0.0, 0.0, 0.0, 0.0, 0.0, 0.0)",0.584,0.031,-9.637,"(0.0, 0.0, 0.0, 0.0, 0.0, 0.0, 0.0, 0.0, 0.0)",0,1700075611,96696615,IMU1_Frame,-2.387e-05,-1.66e-06,3.1519999999999996e-05,"(0.0, 0.0, 0.0, 0.0, 0.0, 0.0, 0.0, 0.0, 0.0)","$VNYMR,+175.384,+003.573,-000.376,-00.2387,-00.0166,+00.3152,+00.584,+00.031,-09.637,-00.001112,-00.000660,+00.000316*6F
"
1700075611.158574,0,1700075611,121683597,IMU1_Frame,0,1700075611,121683597,IMU1_Frame,-0.03128117117299726,-0.002004065620865343,0.9987018882076149,0.04014985107790168,"(0.0, 0.0, 0.0, 0.0, 0.0, 0.0, 0.0, 0.0, 0.0)",-0.000884,0.000992,0.000277,"(0.0, 0.0, 0.0, 0.0, 0.0, 0.0, 0.0, 0.0, 0.0)",0.614,0.057,-9.656,"(0.0, 0.0, 0.0, 0.0, 0.0, 0.0, 0.0, 0.0, 0.0)",0,1700075611,121683597,IMU1_Frame,-2.387e-05,-1.59e-06,3.137e-05,"(0.0, 0.0, 0.0, 0.0, 0.0, 0.0, 0.0, 0.0, 0.0)","$VNYMR,+175.384,+003.573,-000.374,-00.2387,-00.0159,+00.3137,+00.614,+00.057,-09.656,-00.000884,+00.000992,+00.000277*6A
"
1700075611.1586006,0,1700075611,146599531,IMU1_Frame,0,1700075611,146599531,IMU1_Frame,-0.03126337287959144,-0.0019963274180438894,0.9987027972246658,0.040141487374780405,"(0.0, 0.0, 0.0, 0.0, 0.0, 0.0, 0.0, 0.0, 0.0)",-0.000689,-5.1e-05,0.000285,"(0.0, 0.0, 0.0, 0.0, 0.0, 0.0, 0.0, 0.0, 0.0)",0.589,0.034,-9.649,"(0.0, 0.0, 0.0, 0.0, 0.0, 0.0, 0.0, 0.0, 0.0)",0,1700075611,146599531,IMU1_Frame,-2.3860000000000002e-05,-1.26e-06,3.1440000000000004e-05,"(0.0, 0.0, 0.0, 0.0, 0.0, 0.0, 0.0, 0.0, 0.0)","$VNYMR,+175.385,+003.571,-000.373,-00.2386,-00.0126,+00.3144,+00.589,+00.034,-09.649,-00.000689,-00.000051,+00.000285*61
"
1700075611.2025564,0,1700075611,171627759,IMU1_Frame,0,1700075611,171627759,IMU1_Frame,-0.031290551879644864,-0.0020216902274616923,0.9987022829440024,0.040131834921036356,"(0.0, 0.0, 0.0, 0.0, 0.0, 0.0, 0.0, 0.0, 0.0)",-0.001153,0.001257,0.000229,"(0.0, 0.0, 0.0, 0.0, 0.0, 0.0, 0.0, 0.0, 0.0)",0.596,0.086,-9.647,"(0.0, 0.0, 0.0, 0.0, 0.0, 0.0, 0.0, 0.0, 0.0)",0,1700075611,171627759,IMU1_Frame,-2.381e-05,-1.72e-06,3.094e-05,"(0.0, 0.0, 0.0, 0.0, 0.0, 0.0, 0.0, 0.0, 0.0)","$VNYMR,+175.386,+003.574,-000.376,-00.2381,-00.0172,+00.3094,+00.596,+00.086,-09.647,-00.001153,+00.001257,+00.000229*65
"
1700075611.2038023,0,1700075611,196603536,IMU1_Frame,0,1700075611,196603536,IMU1_Frame,-0.03130901514457913,-0.002047405398236498,0.9987020381959196,0.04012222083992859,"(0.0, 0.0, 0.0, 0.0, 0.0, 0.0, 0.0, 0.0, 0.0)",-0.000439,0.00099,0.000364,"(0.0, 0.0, 0.0, 0.0, 0.0, 0.0, 0.0, 0.0, 0.0)",0.611,0.131,-9.638,"(0.0, 0.0, 0.0, 0.0, 0.0, 0.0, 0.0, 0.0, 0.0)",0,1700075611,196603536,IMU1_Frame,-2.398e-05,-1.19e-06,3.121e-05,"(0.0, 0.0, 0.0, 0.0, 0.0, 0.0, 0.0, 0.0, 0.0)","$VNYMR,+175.387,+003.576,-000.379,-00.2398,-00.0119,+00.3121,+00.611,+00.131,-09.638,-00.000439,+00.000990,+00.000364*6B
"
1700075611.2507691,0,1700075611,221574068,IMU1_Frame,0,1700075611,221574068,IMU1_Frame,-0.03131006553113488,-0.0020735513557512218,0.9987019842527216,0.040121401158079266,"(0.0, 0.0, 0.0, 0.0, 0.0, 0.0, 0.0, 0.0, 0.0)",0.000489,-0.000645,-0.000201,"(0.0, 0.0, 0.0, 0.0, 0.0, 0.0, 0.0, 0.0, 0.0)",0.643,0.083,-9.672,"(0.0, 0.0, 0.0, 0.0, 0.0, 0.0, 0.0, 0.0, 0.0)",0,1700075611,221574068,IMU1_Frame,-2.387e-05,-1.72e-06,3.1519999999999996e-05,"(0.0, 0.0, 0.0, 0.0, 0.0, 0.0, 0.0, 0.0, 0.0)","$VNYMR,+175.387,+003.576,-000.382,-00.2387,-00.0172,+00.3152,+00.643,+00.083,-09.672,+00.000489,-00.000645,-00.000201*61
"
1700075611.2907193,0,1700075611,246544361,IMU1_Frame,0,1700075611,246544361,IMU1_Frame,-0.031327846141502226,-0.002081562791242551,0.9987014241906355,0.0401210477440075,"(0.0, 0.0, 0.0, 0.0, 0.0, 0.0, 0.0, 0.0, 0.0)",0.000342,0.000695,0.000848,"(0.0, 0.0, 0.0, 0.0, 0.0, 0.0, 0.0, 0.0, 0.0)",0.601,0.114,-9.64,"(0.0, 0.0, 0.0, 0.0, 0.0, 0.0, 0.0, 0.0, 0.0)",0,1700075611,246544361,IMU1_Frame,-2.373e-05,-1.2e-06,3.13e-05,"(0.0, 0.0, 0.0, 0.0, 0.0, 0.0, 0.0, 0.0, 0.0)","$VNYMR,+175.387,+003.578,-000.383,-00.2373,-00.0120,+00.3130,+00.601,+00.114,-09.640,+00.000342,+00.000695,+00.000848*64
"
1700075611.2907841,0,1700075611,271533489,IMU1_Frame,0,1700075611,271533489,IMU1_Frame,-0.031336893262474616,-0.002090199626987357,0.998701484993506,0.04011201887142018,"(0.0, 0.0, 0.0, 0.0, 0.0, 0.0, 0.0, 0.0, 0.0)",0.001018,-4.3e-05,0.000959,"(0.0, 0.0, 0.0, 0.0, 0.0, 0.0, 0.0, 0.0, 0.0)",0.601,0.045,-9.638,"(0.0, 0.0, 0.0, 0.0, 0.0, 0.0, 0.0, 0.0, 0.0)",0,1700075611,271533489,IMU1_Frame,-2.374e-05,-1.59e-06,3.16e-05,"(0.0, 0.0, 0.0, 0.0, 0.0, 0.0, 0.0, 0.0, 0.0)","$VNYMR,+175.388,+003.579,-000.384,-00.2374,-00.0159,+00.3160,+00.601,+00.045,-09.638,+00.001018,-00.000043,+00.000959*6C
"
1700075611.3346028,0,1700075611,296531915,IMU1_Frame,0,1700075611,296531915,IMU1_Frame,-0.03131872648885246,-0.0020740193395649316,0.9987027633557523,0.04009521518186252,"(0.0, 0.0, 0.0, 0.0, 0.0, 0.0, 0.0, 0.0, 0.0)",9.5e-05,-0.000678,0.000993,"(0.0, 0.0, 0.0, 0.0, 0.0, 0.0, 0.0, 0.0, 0.0)",0.557,0.047,-9.633,"(0.0, 0.0, 0.0, 0.0, 0.0, 0.0, 0.0, 0.0, 0.0)",0,1700075611,296531915,IMU1_Frame,-2.374e-05,-1.66e-06,3.145e-05,"(0.0, 0.0, 0.0, 0.0, 0.0, 0.0, 0.0, 0.0, 0.0)","$VNYMR,+175.390,+003.577,-000.382,-00.2374,-00.0166,+00.3145,+00.557,+00.047,-09.633,+00.000095,-00.000678,+00.000993*63
"
1700075611.3346257,0,1700075611,321649551,IMU1_Frame,0,1700075611,321649551,IMU1_Frame,-0.031309293484587976,-0.0020572136193335363,0.9987034202026411,0.04008708631426362,"(0.0, 0.0, 0.0, 0.0, 0.0, 0.0, 0.0, 0.0, 0.0)",-0.001094,0.000999,0.000569,"(0.0, 0.0, 0.0, 0.0, 0.0, 0.0, 0.0, 0.0, 0.0)",0.587,0.014,-9.66,"(0.0, 0.0, 0.0, 0.0, 0.0, 0.0, 0.0, 0.0, 0.0)",0,1700075611,321649551,IMU1_Frame,-2.387e-05,-1.59e-06,3.159e-05,"(0.0, 0.0, 0.0, 0.0, 0.0, 0.0, 0.0, 0.0, 0.0)","$VNYMR,+175.391,+003.576,-000.380,-00.2387,-00.0159,+00.3159,+00.587,+00.014,-09.660,-00.001094,+00.000999,+00.000569*68
"
1700075611.3785536,0,1700075611,346537113,IMU1_Frame,0,1700075611,346537113,IMU1_Frame,-0.03131729128794226,-0.0020397046255262227,0.9987035348047283,0.04007887772839584,"(0.0, 0.0, 0.0, 0.0, 0.0, 0.0, 0.0, 0.0, 0.0)",-0.000599,0.000579,0.001008,"(0.0, 0.0, 0.0, 0.0, 0.0, 0.0, 0.0, 0.0, 0.0)",0.603,0.036,-9.634,"(0.0, 0.0, 0.0, 0.0, 0.0, 0.0, 0.0, 0.0, 0.0)",0,1700075611,346537113,IMU1_Frame,-2.393e-05,-1.79e-06,3.1219999999999996e-05,"(0.0, 0.0, 0.0, 0.0, 0.0, 0.0, 0.0, 0.0, 0.0)","$VNYMR,+175.392,+003.577,-000.378,-00.2393,-00.0179,+00.3122,+00.603,+00.036,-09.634,-00.000599,+00.000579,+00.001008*60
"
1700075611.3785794,0,1700075611,371748208,IMU1_Frame,0,1700075611,371748208,IMU1_Frame,-0.03131657412593359,-0.0020225472490242777,0.9987039199731089,0.04007070897783498,"(0.0, 0.0, 0.0, 0.0, 0.0, 0.0, 0.0, 0.0, 0.0)",-0.001648,0.000464,0.000824,"(0.0, 0.0, 0.0, 0.0, 0.0, 0.0, 0.0, 0.0, 0.0)",0.586,0.04,-9.647,"(0.0, 0.0, 0.0, 0.0, 0.0, 0.0, 0.0, 0.0, 0.0)",0,1700075611,371748208,IMU1_Frame,-2.399e-05,-1.72e-06,3.1219999999999996e-05,"(0.0, 0.0, 0.0, 0.0, 0.0, 0.0, 0.0, 0.0, 0.0)","$VNYMR,+175.393,+003.577,-000.376,-00.2399,-00.0172,+00.3122,+00.586,+00.040,-09.647,-00.001648,+00.000464,+00.000824*61
"
1700075611.4230115,0,1700075611,396703720,IMU1_Frame,0,1700075611,396703720,IMU1_Frame,-0.03130714198728541,-0.002005741247484925,0.998704575727225,0.04006257959916589,"(0.0, 0.0, 0.0, 0.0, 0.0, 0.0, 0.0, 0.0, 0.0)",-0.000307,-0.001393,0.000316,"(0.0, 0.0, 0.0, 0.0, 0.0, 0.0, 0.0, 0.0, 0.0)",0.613,0.06,-9.658,"(0.0, 0.0, 0.0, 0.0, 0.0, 0.0, 0.0, 0.0, 0.0)",0,1700075611,396703720,IMU1_Frame,-2.387e-05,-1.92e-06,3.1230000000000004e-05,"(0.0, 0.0, 0.0, 0.0, 0.0, 0.0, 0.0, 0.0, 0.0)","$VNYMR,+175.394,+003.576,-000.374,-00.2387,-00.0192,+00.3123,+00.613,+00.060,-09.658,-00.000307,-00.001393,+00.000316*6B
"
1700075611.431079,0,1700075611,421740531,IMU1_Frame,0,1700075611,421740531,IMU1_Frame,-0.03129842671596359,-0.002006092635271136,0.9987048466076435,0.040062618983880624,"(0.0, 0.0, 0.0, 0.0, 0.0, 0.0, 0.0, 0.0, 0.0)",0.000132,-0.00068,0.000446,"(0.0, 0.0, 0.0, 0.0, 0.0, 0.0, 0.0, 0.0, 0.0)",0.598,0.084,-9.669,"(0.0, 0.0, 0.0, 0.0, 0.0, 0.0, 0.0, 0.0, 0.0)",0,1700075611,421740531,IMU1_Frame,-2.405e-05,-1.5800000000000001e-06,3.15e-05,"(0.0, 0.0, 0.0, 0.0, 0.0, 0.0, 0.0, 0.0, 0.0)","$VNYMR,+175.394,+003.575,-000.374,-00.2405,-00.0158,+00.3150,+00.598,+00.084,-09.669,+00.000132,-00.000680,+00.000446*69
"
1700075611.474829,0,1700075611,446480035,IMU1_Frame,0,1700075611,446480035,IMU1_Frame,-0.03129041066278811,-0.002023874715153446,0.9987050822408403,0.04006211225095587,"(0.0, 0.0, 0.0, 0.0, 0.0, 0.0, 0.0, 0.0, 0.0)",-0.000503,0.000182,-0.000282,"(0.0, 0.0, 0.0, 0.0, 0.0, 0.0, 0.0, 0.0, 0.0)",0.607,0.092,-9.674,"(0.0, 0.0, 0.0, 0.0, 0.0, 0.0, 0.0, 0.0, 0.0)",0,1700075611,446480035,IMU1_Frame,-2.374e-05,-1.53e-06,3.13e-05,"(0.0, 0.0, 0.0, 0.0, 0.0, 0.0, 0.0, 0.0, 0.0)","$VNYMR,+175.394,+003.574,-000.376,-00.2374,-00.0153,+00.3130,+00.607,+00.092,-09.674,-00.000503,+00.000182,-00.000282*63
"
1700075611.5226028,0,1700075611,471564531,IMU1_Frame,0,1700075611,471564531,IMU1_Frame,-0.03129147736432549,-0.002049747682793282,0.9987046792749121,0.04007000840017129,"(0.0, 0.0, 0.0, 0.0, 0.0, 0.0, 0.0, 0.0, 0.0)",0.000318,0.000285,-0.000146,"(0.0, 0.0, 0.0, 0.0, 0.0, 0.0, 0.0, 0.0, 0.0)",0.622,0.101,-9.654,"(0.0, 0.0, 0.0, 0.0, 0.0, 0.0, 0.0, 0.0, 0.0)",0,1700075611,471564531,IMU1_Frame,-2.381e-05,-1.8599999999999998e-06,3.1009999999999996e-05,"(0.0, 0.0, 0.0, 0.0, 0.0, 0.0, 0.0, 0.0, 0.0)","$VNYMR,+175.393,+003.574,-000.379,-00.2381,-00.0186,+00.3101,+00.622,+00.101,-09.654,+00.000318,+00.000285,-00.000146*60
"
1700075611.522639,0,1700075611,496552705,IMU1_Frame,0,1700075611,496552705,IMU1_Frame,-0.03128344339874506,-0.0020678028470846256,0.9987052636887912,0.04006078682209277,"(0.0, 0.0, 0.0, 0.0, 0.0, 0.0, 0.0, 0.0, 0.0)",0.000715,0.000744,0.000352,"(0.0, 0.0, 0.0, 0.0, 0.0, 0.0, 0.0, 0.0, 0.0)",0.591,0.081,-9.641,"(0.0, 0.0, 0.0, 0.0, 0.0, 0.0, 0.0, 0.0, 0.0)",0,1700075611,496552705,IMU1_Frame,-2.393e-05,-1.79e-06,3.1440000000000004e-05,"(0.0, 0.0, 0.0, 0.0, 0.0, 0.0, 0.0, 0.0, 0.0)","$VNYMR,+175.394,+003.573,-000.381,-00.2393,-00.0179,+00.3144,+00.591,+00.081,-09.641,+00.000715,+00.000744,+00.000352*63
"
1700075611.5666442,0,1700075611,521407842,IMU1_Frame,0,1700075611,521407842,IMU1_Frame,-0.03127471007345486,-0.0020684271743554336,0.9987058838782128,0.04005211137859961,"(0.0, 0.0, 0.0, 0.0, 0.0, 0.0, 0.0, 0.0, 0.0)",0.001326,-0.000854,0.000674,"(0.0, 0.0, 0.0, 0.0, 0.0, 0.0, 0.0, 0.0, 0.0)",0.621,0.066,-9.614,"(0.0, 0.0, 0.0, 0.0, 0.0, 0.0, 0.0, 0.0, 0.0)",0,1700075611,521407842,IMU1_Frame,-2.393e-05,-1.52e-06,3.129e-05,"(0.0, 0.0, 0.0, 0.0, 0.0, 0.0, 0.0, 0.0, 0.0)","$VNYMR,+175.395,+003.572,-000.381,-00.2393,-00.0152,+00.3129,+00.621,+00.066,-09.614,+00.001326,-00.000854,+00.000674*6C
"
1700075611.566697,0,1700075611,546371221,IMU1_Frame,0,1700075611,546371221,IMU1_Frame,-0.031291773138763426,-0.002059282242580027,0.9987057100304284,0.04004358928836976,"(0.0, 0.0, 0.0, 0.0, 0.0, 0.0, 0.0, 0.0, 0.0)",1.4e-05,0.000377,0.001052,"(0.0, 0.0, 0.0, 0.0, 0.0, 0.0, 0.0, 0.0, 0.0)",0.61,0.027,-9.594,"(0.0, 0.0, 0.0, 0.0, 0.0, 0.0, 0.0, 0.0, 0.0)",0,1700075611,546371221,IMU1_Frame,-2.38e-05,-1.59e-06,3.137e-05,"(0.0, 0.0, 0.0, 0.0, 0.0, 0.0, 0.0, 0.0, 0.0)","$VNYMR,+175.396,+003.574,-000.380,-00.2380,-00.0159,+00.3137,+00.610,+00.027,-09.594,+00.000014,+00.000377,+00.001052*6E
"
1700075611.6145656,0,1700075611,571475744,IMU1_Frame,0,1700075611,571475744,IMU1_Frame,-0.03130846916651056,-0.002041695485443294,0.9987059029064502,0.040026625361207824,"(0.0, 0.0, 0.0, 0.0, 0.0, 0.0, 0.0, 0.0, 0.0)",-0.001311,0.000506,0.001466,"(0.0, 0.0, 0.0, 0.0, 0.0, 0.0, 0.0, 0.0, 0.0)",0.632,0.045,-9.609,"(0.0, 0.0, 0.0, 0.0, 0.0, 0.0, 0.0, 0.0, 0.0)",0,1700075611,571475744,IMU1_Frame,-2.381e-05,-1.79e-06,3.116e-05,"(0.0, 0.0, 0.0, 0.0, 0.0, 0.0, 0.0, 0.0, 0.0)","$VNYMR,+175.398,+003.576,-000.378,-00.2381,-00.0179,+00.3116,+00.632,+00.045,-09.609,-00.001311,+00.000506,+00.001466*64
"
1700075611.6145759,0,1700075611,596371173,IMU1_Frame,0,1700075611,596371173,IMU1_Frame,-0.03131611895491856,-0.0020154716240354626,0.9987060343278579,0.04001869019417879,"(0.0, 0.0, 0.0, 0.0, 0.0, 0.0, 0.0, 0.0, 0.0)",-0.000474,0.00041,0.0012,"(0.0, 0.0, 0.0, 0.0, 0.0, 0.0, 0.0, 0.0, 0.0)",0.61,0.022,-9.627,"(0.0, 0.0, 0.0, 0.0, 0.0, 0.0, 0.0, 0.0, 0.0)",0,1700075611,596371173,IMU1_Frame,-2.381e-05,-1.79e-06,3.108e-05,"(0.0, 0.0, 0.0, 0.0, 0.0, 0.0, 0.0, 0.0, 0.0)","$VNYMR,+175.399,+003.577,-000.375,-00.2381,-00.0179,+00.3108,+00.610,+00.022,-09.627,-00.000474,+00.000410,+00.001200*6E
"
1700075611.6586497,0,1700075611,621306896,IMU1_Frame,0,1700075611,621306896,IMU1_Frame,-0.03132411834013677,-0.0019979632642961862,0.9987061475104025,0.04001048210078944,"(0.0, 0.0, 0.0, 0.0, 0.0, 0.0, 0.0, 0.0, 0.0)",-5e-05,0.001283,-0.000752,"(0.0, 0.0, 0.0, 0.0, 0.0, 0.0, 0.0, 0.0, 0.0)",0.599,0.04,-9.638,"(0.0, 0.0, 0.0, 0.0, 0.0, 0.0, 0.0, 0.0, 0.0)",0,1700075611,621306896,IMU1_Frame,-2.385e-05,-8.6e-07,3.129e-05,"(0.0, 0.0, 0.0, 0.0, 0.0, 0.0, 0.0, 0.0, 0.0)","$VNYMR,+175.400,+003.578,-000.373,-00.2385,-00.0086,+00.3129,+00.599,+00.040,-09.638,-00.000050,+00.001283,-00.000752*64
"
1700075611.6586764,0,1700075611,646508216,IMU1_Frame,0,1700075611,646508216,IMU1_Frame,-0.03131538561508048,-0.001998587472060712,0.998706767667696,0.04000180604220385,"(0.0, 0.0, 0.0, 0.0, 0.0, 0.0, 0.0, 0.0, 0.0)",-0.000634,0.000896,0.000271,"(0.0, 0.0, 0.0, 0.0, 0.0, 0.0, 0.0, 0.0, 0.0)",0.582,0.064,-9.687,"(0.0, 0.0, 0.0, 0.0, 0.0, 0.0, 0.0, 0.0, 0.0)",0,1700075611,646508216,IMU1_Frame,-2.399e-05,-1.65e-06,3.158e-05,"(0.0, 0.0, 0.0, 0.0, 0.0, 0.0, 0.0, 0.0, 0.0)","$VNYMR,+175.401,+003.577,-000.373,-00.2399,-00.0165,+00.3158,+00.582,+00.064,-09.687,-00.000634,+00.000896,+00.000271*6C
"
1700075611.7025688,0,1700075611,671274185,IMU1_Frame,0,1700075611,671274185,IMU1_Frame,-0.031307036924004175,-0.0020073804828559475,0.9987066720299839,0.04001028749496949,"(0.0, 0.0, 0.0, 0.0, 0.0, 0.0, 0.0, 0.0, 0.0)",-7.7e-05,-0.000711,-0.000214,"(0.0, 0.0, 0.0, 0.0, 0.0, 0.0, 0.0, 0.0, 0.0)",0.593,0.057,-9.674,"(0.0, 0.0, 0.0, 0.0, 0.0, 0.0, 0.0, 0.0, 0.0)",0,1700075611,671274185,IMU1_Frame,-2.393e-05,-1.3899999999999998e-06,3.1440000000000004e-05,"(0.0, 0.0, 0.0, 0.0, 0.0, 0.0, 0.0, 0.0, 0.0)","$VNYMR,+175.400,+003.576,-000.374,-00.2393,-00.0139,+00.3144,+00.593,+00.057,-09.674,-00.000077,-00.000711,-00.000214*6B
"
1700075611.7029965,0,1700075611,696326494,IMU1_Frame,0,1700075611,696326494,IMU1_Frame,-0.031298321634295675,-0.002007731414311138,0.9987069429124643,0.04001032686550089,"(0.0, 0.0, 0.0, 0.0, 0.0, 0.0, 0.0, 0.0, 0.0)",0.001198,0.000745,-0.000132,"(0.0, 0.0, 0.0, 0.0, 0.0, 0.0, 0.0, 0.0, 0.0)",0.592,0.058,-9.68,"(0.0, 0.0, 0.0, 0.0, 0.0, 0.0, 0.0, 0.0, 0.0)",0,1700075611,696326494,IMU1_Frame,-2.393e-05,-1.59e-06,3.1440000000000004e-05,"(0.0, 0.0, 0.0, 0.0, 0.0, 0.0, 0.0, 0.0, 0.0)","$VNYMR,+175.400,+003.575,-000.374,-00.2393,-00.0159,+00.3144,+00.592,+00.058,-09.680,+00.001198,+00.000745,-00.000132*6C
"
1700075611.7507327,0,1700075611,721247911,IMU1_Frame,0,1700075611,721247911,IMU1_Frame,-0.031281240203194095,-0.0020171486436201865,0.9987074668843422,0.04001013261862847,"(0.0, 0.0, 0.0, 0.0, 0.0, 0.0, 0.0, 0.0, 0.0)",-0.000873,0.000188,0.000337,"(0.0, 0.0, 0.0, 0.0, 0.0, 0.0, 0.0, 0.0, 0.0)",0.59,0.052,-9.635,"(0.0, 0.0, 0.0, 0.0, 0.0, 0.0, 0.0, 0.0, 0.0)",0,1700075611,721247911,IMU1_Frame,-2.387e-05,-1.72e-06,3.137e-05,"(0.0, 0.0, 0.0, 0.0, 0.0, 0.0, 0.0, 0.0, 0.0)","$VNYMR,+175.400,+003.573,-000.375,-00.2387,-00.0172,+00.3137,+00.590,+00.052,-09.635,-00.000873,+00.000188,+00.000337*68
"
1700075611.7947433,0,1700075611,746284484,IMU1_Frame,0,1700075611,746284484,IMU1_Frame,-0.031273205451846635,-0.002035203225234355,0.9987080512832972,0.04000091087109801,"(0.0, 0.0, 0.0, 0.0, 0.0, 0.0, 0.0, 0.0, 0.0)",-0.000596,0.000838,0.000459,"(0.0, 0.0, 0.0, 0.0, 0.0, 0.0, 0.0, 0.0, 0.0)",0.608,0.069,-9.634,"(0.0, 0.0, 0.0, 0.0, 0.0, 0.0, 0.0, 0.0, 0.0)",0,1700075611,746284484,IMU1_Frame,-2.393e-05,-1.3899999999999998e-06,3.129e-05,"(0.0, 0.0, 0.0, 0.0, 0.0, 0.0, 0.0, 0.0, 0.0)","$VNYMR,+175.401,+003.572,-000.377,-00.2393,-00.0139,+00.3129,+00.608,+00.069,-09.634,-00.000596,+00.000838,+00.000459*6F
"
1700075611.7947977,0,1700075611,771245241,IMU1_Frame,0,1700075611,771245241,IMU1_Frame,-0.03129096728753038,-0.0020434899333850896,0.9987078411565949,0.0399918432613038,"(0.0, 0.0, 0.0, 0.0, 0.0, 0.0, 0.0, 0.0, 0.0)",-0.000388,0.000762,0.000237,"(0.0, 0.0, 0.0, 0.0, 0.0, 0.0, 0.0, 0.0, 0.0)",0.596,0.038,-9.622,"(0.0, 0.0, 0.0, 0.0, 0.0, 0.0, 0.0, 0.0, 0.0)",0,1700075611,771245241,IMU1_Frame,-2.38e-05,-1.59e-06,3.108e-05,"(0.0, 0.0, 0.0, 0.0, 0.0, 0.0, 0.0, 0.0, 0.0)","$VNYMR,+175.402,+003.574,-000.378,-00.2380,-00.0159,+00.3108,+00.596,+00.038,-09.622,-00.000388,+00.000762,+00.000237*62
"
1700075611.838611,0,1700075611,796277761,IMU1_Frame,0,1700075611,796277761,IMU1_Frame,-0.03129094945352512,-0.0020437629985099294,0.9987081901132363,0.0399831278897342,"(0.0, 0.0, 0.0, 0.0, 0.0, 0.0, 0.0, 0.0, 0.0)",0.000539,1.5e-05,0.001796,"(0.0, 0.0, 0.0, 0.0, 0.0, 0.0, 0.0, 0.0, 0.0)",0.628,0.064,-9.6,"(0.0, 0.0, 0.0, 0.0, 0.0, 0.0, 0.0, 0.0, 0.0)",0,1700075611,796277761,IMU1_Frame,-2.3919999999999998e-05,-1.32e-06,3.129e-05,"(0.0, 0.0, 0.0, 0.0, 0.0, 0.0, 0.0, 0.0, 0.0)","$VNYMR,+175.403,+003.574,-000.378,-00.2392,-00.0132,+00.3129,+00.628,+00.064,-09.600,+00.000539,+00.000015,+00.001796*63
"
1700075611.83862,0,1700075611,821262121,IMU1_Frame,0,1700075611,821262121,IMU1_Frame,-0.03129058277338798,-0.0020353206872647947,0.9987085567933736,0.03997468557848898,"(0.0, 0.0, 0.0, 0.0, 0.0, 0.0, 0.0, 0.0, 0.0)",0.000284,-0.000477,0.0007,"(0.0, 0.0, 0.0, 0.0, 0.0, 0.0, 0.0, 0.0, 0.0)",0.628,0.074,-9.651,"(0.0, 0.0, 0.0, 0.0, 0.0, 0.0, 0.0, 0.0, 0.0)",0,1700075611,821262121,IMU1_Frame,-2.381e-05,-1.72e-06,3.13e-05,"(0.0, 0.0, 0.0, 0.0, 0.0, 0.0, 0.0, 0.0, 0.0)","$VNYMR,+175.404,+003.574,-000.377,-00.2381,-00.0172,+00.3130,+00.628,+00.074,-09.651,+00.000284,-00.000477,+00.000700*69
"
1700075611.8826492,0,1700075611,846245288,IMU1_Frame,0,1700075611,846245288,IMU1_Frame,-0.03128115215870325,-0.0020185135432887026,0.9987092117050135,0.039966555746652026,"(0.0, 0.0, 0.0, 0.0, 0.0, 0.0, 0.0, 0.0, 0.0)",-1.2e-05,-0.000667,0.00081,"(0.0, 0.0, 0.0, 0.0, 0.0, 0.0, 0.0, 0.0, 0.0)",0.587,0.054,-9.671,"(0.0, 0.0, 0.0, 0.0, 0.0, 0.0, 0.0, 0.0, 0.0)",0,1700075611,846245288,IMU1_Frame,-2.4e-05,-1.8499999999999999e-06,3.115e-05,"(0.0, 0.0, 0.0, 0.0, 0.0, 0.0, 0.0, 0.0, 0.0)","$VNYMR,+175.405,+003.573,-000.375,-00.2400,-00.0185,+00.3115,+00.587,+00.054,-09.671,-00.000012,-00.000667,+00.000810*6C
"
1700075611.882682,0,1700075611,871421098,IMU1_Frame,0,1700075611,871421098,IMU1_Frame,-0.031271721826455004,-0.0020017062246560193,0.9987098661827708,0.03995842558699246,"(0.0, 0.0, 0.0, 0.0, 0.0, 0.0, 0.0, 0.0, 0.0)",-0.000847,-0.000332,0.000674,"(0.0, 0.0, 0.0, 0.0, 0.0, 0.0, 0.0, 0.0, 0.0)",0.589,0.055,-9.656,"(0.0, 0.0, 0.0, 0.0, 0.0, 0.0, 0.0, 0.0, 0.0)",0,1700075611,871421098,IMU1_Frame,-2.405e-05,-1.52e-06,3.1280000000000005e-05,"(0.0, 0.0, 0.0, 0.0, 0.0, 0.0, 0.0, 0.0, 0.0)","$VNYMR,+175.406,+003.572,-000.373,-00.2405,-00.0152,+00.3128,+00.589,+00.055,-09.656,-00.000847,-00.000332,+00.000674*62
"
1700075611.9267333,0,1700075611,896271944,IMU1_Frame,0,1700075611,896271944,IMU1_Frame,-0.031271721826455004,-0.0020017062246560193,0.9987098661827708,0.03995842558699246,"(0.0, 0.0, 0.0, 0.0, 0.0, 0.0, 0.0, 0.0, 0.0)",-0.00087,0.000624,0.00097,"(0.0, 0.0, 0.0, 0.0, 0.0, 0.0, 0.0, 0.0, 0.0)",0.617,0.056,-9.661,"(0.0, 0.0, 0.0, 0.0, 0.0, 0.0, 0.0, 0.0, 0.0)",0,1700075611,896271944,IMU1_Frame,-2.4e-05,-1.78e-06,3.1440000000000004e-05,"(0.0, 0.0, 0.0, 0.0, 0.0, 0.0, 0.0, 0.0, 0.0)","$VNYMR,+175.406,+003.572,-000.373,-00.2400,-00.0178,+00.3144,+00.617,+00.056,-09.661,-00.000870,+00.000624,+00.000970*6D
"
1700075611.9274411,0,1700075611,921230316,IMU1_Frame,0,1700075611,921230316,IMU1_Frame,-0.03129786776599637,-0.0020006548072924366,0.9987090539763079,0.03995830776437276,"(0.0, 0.0, 0.0, 0.0, 0.0, 0.0, 0.0, 0.0, 0.0)",0.000335,0.001561,-0.001087,"(0.0, 0.0, 0.0, 0.0, 0.0, 0.0, 0.0, 0.0, 0.0)",0.599,0.056,-9.67,"(0.0, 0.0, 0.0, 0.0, 0.0, 0.0, 0.0, 0.0, 0.0)",0,1700075611,921230316,IMU1_Frame,-2.387e-05,-1.52e-06,3.115e-05,"(0.0, 0.0, 0.0, 0.0, 0.0, 0.0, 0.0, 0.0, 0.0)","$VNYMR,+175.406,+003.575,-000.373,-00.2387,-00.0152,+00.3115,+00.599,+00.056,-09.670,+00.000335,+00.001561,-00.001087*62
"
1700075611.9746237,0,1700075611,946262359,IMU1_Frame,0,1700075611,946262359,IMU1_Frame,-0.03130693177489292,-0.0020090197127236222,0.9987087655947319,0.0399579952810826,"(0.0, 0.0, 0.0, 0.0, 0.0, 0.0, 0.0, 0.0, 0.0)",0.000107,0.000812,0.000888,"(0.0, 0.0, 0.0, 0.0, 0.0, 0.0, 0.0, 0.0, 0.0)",0.598,0.081,-9.632,"(0.0, 0.0, 0.0, 0.0, 0.0, 0.0, 0.0, 0.0, 0.0)",0,1700075611,946262359,IMU1_Frame,-2.393e-05,-1.72e-06,3.115e-05,"(0.0, 0.0, 0.0, 0.0, 0.0, 0.0, 0.0, 0.0, 0.0)","$VNYMR,+175.406,+003.576,-000.374,-00.2393,-00.0172,+00.3115,+00.598,+00.081,-09.632,+00.000107,+00.000812,+00.000888*67
"
1700075612.0225585,0,1700075611,971176147,IMU1_Frame,0,1700075611,971176147,IMU1_Frame,-0.03130728047299091,-0.002017735090761092,0.9987087480246996,0.03995772207504203,"(0.0, 0.0, 0.0, 0.0, 0.0, 0.0, 0.0, 0.0, 0.0)",4e-06,0.000149,0.000244,"(0.0, 0.0, 0.0, 0.0, 0.0, 0.0, 0.0, 0.0, 0.0)",0.6,0.07,-9.635,"(0.0, 0.0, 0.0, 0.0, 0.0, 0.0, 0.0, 0.0, 0.0)",0,1700075611,971176147,IMU1_Frame,-2.381e-05,-1.66e-06,3.1230000000000004e-05,"(0.0, 0.0, 0.0, 0.0, 0.0, 0.0, 0.0, 0.0, 0.0)","$VNYMR,+175.406,+003.576,-000.375,-00.2381,-00.0166,+00.3123,+00.600,+00.070,-09.635,+00.000004,+00.000149,+00.000244*61
"
1700075612.0225716,0,1700075611,996162652,IMU1_Frame,0,1700075611,996162652,IMU1_Frame,-0.03131561201791862,-0.0020092157982904008,0.9987091918799157,0.03994052516410763,"(0.0, 0.0, 0.0, 0.0, 0.0, 0.0, 0.0, 0.0, 0.0)",-0.000167,0.000601,0.000164,"(0.0, 0.0, 0.0, 0.0, 0.0, 0.0, 0.0, 0.0, 0.0)",0.595,0.057,-9.656,"(0.0, 0.0, 0.0, 0.0, 0.0, 0.0, 0.0, 0.0, 0.0)",0,1700075611,996162652,IMU1_Frame,-2.4e-05,-1.8499999999999999e-06,3.129e-05,"(0.0, 0.0, 0.0, 0.0, 0.0, 0.0, 0.0, 0.0, 0.0)","$VNYMR,+175.408,+003.577,-000.374,-00.2400,-00.0185,+00.3129,+00.595,+00.057,-09.656,-00.000167,+00.000601,+00.000164*61
"
1700075612.0667052,0,1700075612,21173715,IMU1_Frame,0,1700075612,21173715,IMU1_Frame,-0.03129781537825039,-0.0020014741828687796,0.9987100997401066,0.03993216160879039,"(0.0, 0.0, 0.0, 0.0, 0.0, 0.0, 0.0, 0.0, 0.0)",0.000362,-0.000672,0.001655,"(0.0, 0.0, 0.0, 0.0, 0.0, 0.0, 0.0, 0.0, 0.0)",0.601,0.06,-9.617,"(0.0, 0.0, 0.0, 0.0, 0.0, 0.0, 0.0, 0.0, 0.0)",0,1700075612,21173715,IMU1_Frame,-2.399e-05,-1.72e-06,3.136e-05,"(0.0, 0.0, 0.0, 0.0, 0.0, 0.0, 0.0, 0.0, 0.0)","$VNYMR,+175.409,+003.575,-000.373,-00.2399,-00.0172,+00.3136,+00.601,+00.060,-09.617,+00.000362,-00.000672,+00.001655*6C
"
1700075612.0667496,0,1700075612,46153783,IMU1_Frame,0,1700075612,46153783,IMU1_Frame,-0.03128071565975281,-0.002011163041820482,0.9987109722130199,0.03992325177584559,"(0.0, 0.0, 0.0, 0.0, 0.0, 0.0, 0.0, 0.0, 0.0)",-0.000835,0.000195,0.001444,"(0.0, 0.0, 0.0, 0.0, 0.0, 0.0, 0.0, 0.0, 0.0)",0.559,0.057,-9.652,"(0.0, 0.0, 0.0, 0.0, 0.0, 0.0, 0.0, 0.0, 0.0)",0,1700075612,46153783,IMU1_Frame,-2.399e-05,-1.52e-06,3.143e-05,"(0.0, 0.0, 0.0, 0.0, 0.0, 0.0, 0.0, 0.0, 0.0)","$VNYMR,+175.410,+003.573,-000.374,-00.2399,-00.0152,+00.3143,+00.559,+00.057,-09.652,-00.000835,+00.000195,+00.001444*6B
"
1700075612.1146958,0,1700075612,71076154,IMU1_Frame,0,1700075612,71076154,IMU1_Frame,-0.03127161697449562,-0.0020033436054372965,0.9987119570320311,0.039906133205931,"(0.0, 0.0, 0.0, 0.0, 0.0, 0.0, 0.0, 0.0, 0.0)",0.000378,0.000181,0.000742,"(0.0, 0.0, 0.0, 0.0, 0.0, 0.0, 0.0, 0.0, 0.0)",0.606,0.06,-9.656,"(0.0, 0.0, 0.0, 0.0, 0.0, 0.0, 0.0, 0.0, 0.0)",0,1700075612,71076154,IMU1_Frame,-2.399e-05,-1.59e-06,3.136e-05,"(0.0, 0.0, 0.0, 0.0, 0.0, 0.0, 0.0, 0.0, 0.0)","$VNYMR,+175.412,+003.572,-000.373,-00.2399,-00.0159,+00.3136,+00.606,+00.060,-09.656,+00.000378,+00.000181,+00.000742*6A
"
1700075612.1147306,0,1700075612,96289396,IMU1_Frame,0,1700075612,96289396,IMU1_Frame,-0.03128033230839717,-0.0020029935894685085,0.9987116863705439,0.03990609394893919,"(0.0, 0.0, 0.0, 0.0, 0.0, 0.0, 0.0, 0.0, 0.0)",0.000778,0.001351,0.000232,"(0.0, 0.0, 0.0, 0.0, 0.0, 0.0, 0.0, 0.0, 0.0)",0.619,0.054,-9.672,"(0.0, 0.0, 0.0, 0.0, 0.0, 0.0, 0.0, 0.0, 0.0)",0,1700075612,96289396,IMU1_Frame,-2.405e-05,-1.52e-06,3.121e-05,"(0.0, 0.0, 0.0, 0.0, 0.0, 0.0, 0.0, 0.0, 0.0)","$VNYMR,+175.412,+003.573,-000.373,-00.2405,-00.0152,+00.3121,+00.619,+00.054,-09.672,+00.000778,+00.001351,+00.000232*63
"
1700075612.158632,0,1700075612,121062040,IMU1_Frame,0,1700075612,121062040,IMU1_Frame,-0.0312799840608406,-0.0019942781857896948,0.9987117038119322,0.03990636691981462,"(0.0, 0.0, 0.0, 0.0, 0.0, 0.0, 0.0, 0.0, 0.0)",0.000682,-0.001289,-0.00016,"(0.0, 0.0, 0.0, 0.0, 0.0, 0.0, 0.0, 0.0, 0.0)",0.609,0.078,-9.671,"(0.0, 0.0, 0.0, 0.0, 0.0, 0.0, 0.0, 0.0, 0.0)",0,1700075612,121062040,IMU1_Frame,-2.3860000000000002e-05,-1.52e-06,3.159e-05,"(0.0, 0.0, 0.0, 0.0, 0.0, 0.0, 0.0, 0.0, 0.0)","$VNYMR,+175.412,+003.573,-000.372,-00.2386,-00.0152,+00.3159,+00.609,+00.078,-09.671,+00.000682,-00.001289,-00.000160*69
"
1700075612.158668,0,1700075612,146440744,IMU1_Frame,0,1700075612,146440744,IMU1_Frame,-0.03128033230839717,-0.0020029935894685085,0.9987116863705439,0.03990609394893919,"(0.0, 0.0, 0.0, 0.0, 0.0, 0.0, 0.0, 0.0, 0.0)",-0.000194,0.000905,0.000366,"(0.0, 0.0, 0.0, 0.0, 0.0, 0.0, 0.0, 0.0, 0.0)",0.588,0.071,-9.688,"(0.0, 0.0, 0.0, 0.0, 0.0, 0.0, 0.0, 0.0, 0.0)",0,1700075612,146440744,IMU1_Frame,-2.393e-05,-1.72e-06,3.151e-05,"(0.0, 0.0, 0.0, 0.0, 0.0, 0.0, 0.0, 0.0, 0.0)","$VNYMR,+175.412,+003.573,-000.373,-00.2393,-00.0172,+00.3151,+00.588,+00.071,-09.688,-00.000194,+00.000905,+00.000366*6F
"
1700075612.2025766,0,1700075612,171043872,IMU1_Frame,0,1700075612,171043872,IMU1_Frame,-0.03127123390900447,-0.0019951739856932287,0.9987126708225404,0.039888975282439926,"(0.0, 0.0, 0.0, 0.0, 0.0, 0.0, 0.0, 0.0, 0.0)",0.000644,0.000405,0.001268,"(0.0, 0.0, 0.0, 0.0, 0.0, 0.0, 0.0, 0.0, 0.0)",0.59,0.068,-9.638,"(0.0, 0.0, 0.0, 0.0, 0.0, 0.0, 0.0, 0.0, 0.0)",0,1700075612,171043872,IMU1_Frame,-2.374e-05,-1.66e-06,3.13e-05,"(0.0, 0.0, 0.0, 0.0, 0.0, 0.0, 0.0, 0.0, 0.0)","$VNYMR,+175.414,+003.572,-000.372,-00.2374,-00.0166,+00.3130,+00.590,+00.068,-09.638,+00.000644,+00.000405,+00.001268*67
"
1700075612.2026055,0,1700075612,196073293,IMU1_Frame,0,1700075612,196073293,IMU1_Frame,-0.031270868474524816,-0.0019867314633068177,0.9987130362570201,0.039880532760053426,"(0.0, 0.0, 0.0, 0.0, 0.0, 0.0, 0.0, 0.0, 0.0)",-4.7e-05,0.001363,0.000769,"(0.0, 0.0, 0.0, 0.0, 0.0, 0.0, 0.0, 0.0, 0.0)",0.584,0.03,-9.641,"(0.0, 0.0, 0.0, 0.0, 0.0, 0.0, 0.0, 0.0, 0.0)",0,1700075612,196073293,IMU1_Frame,-2.412e-05,-1.65e-06,3.1280000000000005e-05,"(0.0, 0.0, 0.0, 0.0, 0.0, 0.0, 0.0, 0.0, 0.0)","$VNYMR,+175.415,+003.572,-000.371,-00.2412,-00.0165,+00.3128,+00.584,+00.030,-09.641,-00.000047,+00.001363,+00.000769*6E
"
1700075612.2505772,0,1700075612,221270561,IMU1_Frame,0,1700075612,221270561,IMU1_Frame,-0.03126980728337809,-0.001960858097102493,0.9987134359196926,0.039872635998456654,"(0.0, 0.0, 0.0, 0.0, 0.0, 0.0, 0.0, 0.0, 0.0)",-0.000298,-0.000774,0.000526,"(0.0, 0.0, 0.0, 0.0, 0.0, 0.0, 0.0, 0.0, 0.0)",0.593,0.035,-9.646,"(0.0, 0.0, 0.0, 0.0, 0.0, 0.0, 0.0, 0.0, 0.0)",0,1700075612,221270561,IMU1_Frame,-2.412e-05,-1.8499999999999999e-06,3.1280000000000005e-05,"(0.0, 0.0, 0.0, 0.0, 0.0, 0.0, 0.0, 0.0, 0.0)","$VNYMR,+175.416,+003.572,-000.368,-00.2412,-00.0185,+00.3128,+00.593,+00.035,-09.646,-00.000298,-00.000774,+00.000526*63
"
1700075612.2519724,0,1700075612,246163606,IMU1_Frame,0,1700075612,246163606,IMU1_Frame,-0.03126037905511502,-0.001944049752471533,0.9987140885206353,0.03986450504254695,"(0.0, 0.0, 0.0, 0.0, 0.0, 0.0, 0.0, 0.0, 0.0)",0.000223,0.000511,0.000918,"(0.0, 0.0, 0.0, 0.0, 0.0, 0.0, 0.0, 0.0, 0.0)",0.605,0.032,-9.65,"(0.0, 0.0, 0.0, 0.0, 0.0, 0.0, 0.0, 0.0, 0.0)",0,1700075612,246163606,IMU1_Frame,-2.381e-05,-1.66e-06,3.094e-05,"(0.0, 0.0, 0.0, 0.0, 0.0, 0.0, 0.0, 0.0, 0.0)","$VNYMR,+175.417,+003.571,-000.366,-00.2381,-00.0166,+00.3094,+00.605,+00.032,-09.650,+00.000223,+00.000511,+00.000918*65
"
1700075612.2986715,0,1700075612,271908283,IMU1_Frame,0,1700075612,271908283,IMU1_Frame,-0.03125931865604539,-0.001918176267201473,0.9987144869260322,0.03985660799717094,"(0.0, 0.0, 0.0, 0.0, 0.0, 0.0, 0.0, 0.0, 0.0)",-0.000149,0.000509,0.001095,"(0.0, 0.0, 0.0, 0.0, 0.0, 0.0, 0.0, 0.0, 0.0)",0.608,0.04,-9.621,"(0.0, 0.0, 0.0, 0.0, 0.0, 0.0, 0.0, 0.0, 0.0)",0,1700075612,271908283,IMU1_Frame,-2.393e-05,-1.79e-06,3.1219999999999996e-05,"(0.0, 0.0, 0.0, 0.0, 0.0, 0.0, 0.0, 0.0, 0.0)","$VNYMR,+175.418,+003.571,-000.363,-00.2393,-00.0179,+00.3122,+00.608,+00.040,-09.621,-00.000149,+00.000509,+00.001095*6D
"
1700075612.3465884,0,1700075612,296059846,IMU1_Frame,0,1700075612,296059846,IMU1_Frame,-0.0312760537371835,-0.0019000463483931887,0.9987139789281736,0.03985707691186779,"(0.0, 0.0, 0.0, 0.0, 0.0, 0.0, 0.0, 0.0, 0.0)",-0.00057,0.00057,0.000798,"(0.0, 0.0, 0.0, 0.0, 0.0, 0.0, 0.0, 0.0, 0.0)",0.595,0.065,-9.637,"(0.0, 0.0, 0.0, 0.0, 0.0, 0.0, 0.0, 0.0, 0.0)",0,1700075612,296059846,IMU1_Frame,-2.405e-05,-1.25e-06,3.1140000000000003e-05,"(0.0, 0.0, 0.0, 0.0, 0.0, 0.0, 0.0, 0.0, 0.0)","$VNYMR,+175.418,+003.573,-000.361,-00.2405,-00.0125,+00.3114,+00.595,+00.065,-09.637,-00.000570,+00.000570,+00.000798*65
"
1700075612.3466182,0,1700075612,320932388,IMU1_Frame,0,1700075612,320932388,IMU1_Frame,-0.03128579572784592,-0.0019261161001894252,0.998714005848871,0.03984750410935766,"(0.0, 0.0, 0.0, 0.0, 0.0, 0.0, 0.0, 0.0, 0.0)",-0.000705,-0.000509,0.000905,"(0.0, 0.0, 0.0, 0.0, 0.0, 0.0, 0.0, 0.0, 0.0)",0.614,0.086,-9.639,"(0.0, 0.0, 0.0, 0.0, 0.0, 0.0, 0.0, 0.0, 0.0)",0,1700075612,320932388,IMU1_Frame,-2.393e-05,-1.46e-06,3.129e-05,"(0.0, 0.0, 0.0, 0.0, 0.0, 0.0, 0.0, 0.0, 0.0)","$VNYMR,+175.419,+003.574,-000.364,-00.2393,-00.0146,+00.3129,+00.614,+00.086,-09.639,-00.000705,-00.000509,+00.000905*6E
"
1700075612.3906934,0,1700075612,345970630,IMU1_Frame,0,1700075612,345970630,IMU1_Frame,-0.03128718664907606,-0.001960977794384578,0.9987139380062843,0.039846412004792275,"(0.0, 0.0, 0.0, 0.0, 0.0, 0.0, 0.0, 0.0, 0.0)",-0.000962,-0.000666,-0.000104,"(0.0, 0.0, 0.0, 0.0, 0.0, 0.0, 0.0, 0.0, 0.0)",0.605,0.097,-9.696,"(0.0, 0.0, 0.0, 0.0, 0.0, 0.0, 0.0, 0.0, 0.0)",0,1700075612,345970630,IMU1_Frame,-2.362e-05,-1.73e-06,3.139e-05,"(0.0, 0.0, 0.0, 0.0, 0.0, 0.0, 0.0, 0.0, 0.0)","$VNYMR,+175.419,+003.574,-000.368,-00.2362,-00.0173,+00.3139,+00.605,+00.097,-09.696,-00.000962,-00.000666,-00.000104*64
"
1700075612.3907726,0,1700075612,370904684,IMU1_Frame,0,1700075612,370904684,IMU1_Frame,-0.03128822981498088,-0.0019871240634652273,0.9987138863257519,0.03984559289450615,"(0.0, 0.0, 0.0, 0.0, 0.0, 0.0, 0.0, 0.0, 0.0)",0.000584,-0.000777,0.000228,"(0.0, 0.0, 0.0, 0.0, 0.0, 0.0, 0.0, 0.0, 0.0)",0.618,0.11,-9.649,"(0.0, 0.0, 0.0, 0.0, 0.0, 0.0, 0.0, 0.0, 0.0)",0,1700075612,370904684,IMU1_Frame,-2.381e-05,-1.8499999999999999e-06,3.1519999999999996e-05,"(0.0, 0.0, 0.0, 0.0, 0.0, 0.0, 0.0, 0.0, 0.0)","$VNYMR,+175.419,+003.574,-000.371,-00.2381,-00.0185,+00.3152,+00.618,+00.110,-09.649,+00.000584,-00.000777,+00.000228*6D
"
1700075612.434748,0,1700075612,396868467,IMU1_Frame,0,1700075612,396868467,IMU1_Frame,-0.03128889025615503,-0.002005101003223089,0.998714546766926,0.03982761595474834,"(0.0, 0.0, 0.0, 0.0, 0.0, 0.0, 0.0, 0.0, 0.0)",0.000511,-0.000266,0.001193,"(0.0, 0.0, 0.0, 0.0, 0.0, 0.0, 0.0, 0.0, 0.0)",0.591,0.073,-9.674,"(0.0, 0.0, 0.0, 0.0, 0.0, 0.0, 0.0, 0.0, 0.0)",0,1700075612,396868467,IMU1_Frame,-2.405e-05,-1.5800000000000001e-06,3.1280000000000005e-05,"(0.0, 0.0, 0.0, 0.0, 0.0, 0.0, 0.0, 0.0, 0.0)","$VNYMR,+175.421,+003.574,-000.373,-00.2405,-00.0158,+00.3128,+00.591,+00.073,-09.674,+00.000511,-00.000266,+00.001193*61
"
1700075612.4347956,0,1700075612,420907258,IMU1_Frame,0,1700075612,420907258,IMU1_Frame,-0.031280504879736236,-0.002014438739670922,0.9987151474901163,0.03981866678868738,"(0.0, 0.0, 0.0, 0.0, 0.0, 0.0, 0.0, 0.0, 0.0)",0.000114,-0.000603,0.001428,"(0.0, 0.0, 0.0, 0.0, 0.0, 0.0, 0.0, 0.0, 0.0)",0.59,0.077,-9.639,"(0.0, 0.0, 0.0, 0.0, 0.0, 0.0, 0.0, 0.0, 0.0)",0,1700075612,420907258,IMU1_Frame,-2.406e-05,-1.72e-06,3.143e-05,"(0.0, 0.0, 0.0, 0.0, 0.0, 0.0, 0.0, 0.0, 0.0)","$VNYMR,+175.422,+003.573,-000.374,-00.2406,-00.0172,+00.3143,+00.590,+00.077,-09.639,+00.000114,-00.000603,+00.001428*6B
"
1700075612.478705,0,1700075612,446985244,IMU1_Frame,0,1700075612,446985244,IMU1_Frame,-0.031297570618470744,-0.0020052979174112447,0.998714970920477,0.039810145854481095,"(0.0, 0.0, 0.0, 0.0, 0.0, 0.0, 0.0, 0.0, 0.0)",0.000447,0.0014,0.001026,"(0.0, 0.0, 0.0, 0.0, 0.0, 0.0, 0.0, 0.0, 0.0)",0.598,0.052,-9.639,"(0.0, 0.0, 0.0, 0.0, 0.0, 0.0, 0.0, 0.0, 0.0)",0,1700075612,446985244,IMU1_Frame,-2.387e-05,-1.98e-06,3.1519999999999996e-05,"(0.0, 0.0, 0.0, 0.0, 0.0, 0.0, 0.0, 0.0, 0.0)","$VNYMR,+175.423,+003.575,-000.373,-00.2387,-00.0198,+00.3152,+00.598,+00.052,-09.639,+00.000447,+00.001400,+00.001026*61
"
1700075612.4787502,0,1700075612,470890283,IMU1_Frame,0,1700075612,470890283,IMU1_Frame,-0.031305226472399555,-0.0019790756369213102,0.9987150995520759,0.03980221076551079,"(0.0, 0.0, 0.0, 0.0, 0.0, 0.0, 0.0, 0.0, 0.0)",0.000737,0.002002,0.00177,"(0.0, 0.0, 0.0, 0.0, 0.0, 0.0, 0.0, 0.0, 0.0)",0.614,0.016,-9.624,"(0.0, 0.0, 0.0, 0.0, 0.0, 0.0, 0.0, 0.0, 0.0)",0,1700075612,470890283,IMU1_Frame,-2.368e-05,-1.73e-06,3.167e-05,"(0.0, 0.0, 0.0, 0.0, 0.0, 0.0, 0.0, 0.0, 0.0)","$VNYMR,+175.424,+003.576,-000.370,-00.2368,-00.0173,+00.3167,+00.614,+00.016,-09.624,+00.000737,+00.002002,+00.001770*6A
"
1700075612.522596,0,1700075612,496993064,IMU1_Frame,0,1700075612,496993064,IMU1_Frame,-0.031312899805248,-0.0019525802463594292,0.998714880033799,0.03980299153634631,"(0.0, 0.0, 0.0, 0.0, 0.0, 0.0, 0.0, 0.0, 0.0)",0.00053,0.000605,-0.000104,"(0.0, 0.0, 0.0, 0.0, 0.0, 0.0, 0.0, 0.0, 0.0)",0.618,0.01,-9.637,"(0.0, 0.0, 0.0, 0.0, 0.0, 0.0, 0.0, 0.0, 0.0)",0,1700075612,496993064,IMU1_Frame,-2.387e-05,-1.66e-06,3.1440000000000004e-05,"(0.0, 0.0, 0.0, 0.0, 0.0, 0.0, 0.0, 0.0, 0.0)","$VNYMR,+175.424,+003.577,-000.367,-00.2387,-00.0166,+00.3144,+00.618,+00.010,-09.637,+00.000530,+00.000605,-00.000104*65
"
1700075612.527081,0,1700075612,521764755,IMU1_Frame,0,1700075612,521764755,IMU1_Frame,-0.03131184094213577,-0.001926707198708416,0.9987152781257288,0.039795095859074536,"(0.0, 0.0, 0.0, 0.0, 0.0, 0.0, 0.0, 0.0, 0.0)",-0.000329,1.5e-05,0.000461,"(0.0, 0.0, 0.0, 0.0, 0.0, 0.0, 0.0, 0.0, 0.0)",0.585,0.03,-9.658,"(0.0, 0.0, 0.0, 0.0, 0.0, 0.0, 0.0, 0.0, 0.0)",0,1700075612,521764755,IMU1_Frame,-2.374e-05,-1.3899999999999998e-06,3.1740000000000004e-05,"(0.0, 0.0, 0.0, 0.0, 0.0, 0.0, 0.0, 0.0, 0.0)","$VNYMR,+175.425,+003.577,-000.364,-00.2374,-00.0139,+00.3174,+00.585,+00.030,-09.658,-00.000329,+00.000015,+00.000461*61
"
1700075612.5706878,0,1700075612,546866416,IMU1_Frame,0,1700075612,546866416,IMU1_Frame,-0.031293698975177024,-0.0019102474211739238,0.9987162007774159,0.03978700370680418,"(0.0, 0.0, 0.0, 0.0, 0.0, 0.0, 0.0, 0.0, 0.0)",-0.000665,0.001014,-0.000871,"(0.0, 0.0, 0.0, 0.0, 0.0, 0.0, 0.0, 0.0, 0.0)",0.615,0.026,-9.679,"(0.0, 0.0, 0.0, 0.0, 0.0, 0.0, 0.0, 0.0, 0.0)",0,1700075612,546866416,IMU1_Frame,-2.399e-05,-1.59e-06,3.158e-05,"(0.0, 0.0, 0.0, 0.0, 0.0, 0.0, 0.0, 0.0, 0.0)","$VNYMR,+175.426,+003.575,-000.362,-00.2399,-00.0159,+00.3158,+00.615,+00.026,-09.679,-00.000665,+00.001014,-00.000871*65
"
1700075612.6145785,0,1700075612,571742296,IMU1_Frame,0,1700075612,571742296,IMU1_Frame,-0.03127592101270688,-0.0019022298242200829,0.9987167590432552,0.03978735342592359,"(0.0, 0.0, 0.0, 0.0, 0.0, 0.0, 0.0, 0.0, 0.0)",-0.000694,6.2e-05,0.0004,"(0.0, 0.0, 0.0, 0.0, 0.0, 0.0, 0.0, 0.0, 0.0)",0.574,0.058,-9.678,"(0.0, 0.0, 0.0, 0.0, 0.0, 0.0, 0.0, 0.0, 0.0)",0,1700075612,571742296,IMU1_Frame,-2.399e-05,-1.59e-06,3.158e-05,"(0.0, 0.0, 0.0, 0.0, 0.0, 0.0, 0.0, 0.0, 0.0)","$VNYMR,+175.426,+003.573,-000.361,-00.2399,-00.0159,+00.3158,+00.574,+00.058,-09.678,-00.000694,+00.000062,+00.000400*6E
"
1700075612.614613,0,1700075612,596725225,IMU1_Frame,0,1700075612,596725225,IMU1_Frame,-0.031259184665902454,-0.0019203585746551206,0.9987172670083762,0.039786884475762944,"(0.0, 0.0, 0.0, 0.0, 0.0, 0.0, 0.0, 0.0, 0.0)",-0.001116,-0.000597,0.000432,"(0.0, 0.0, 0.0, 0.0, 0.0, 0.0, 0.0, 0.0, 0.0)",0.575,0.054,-9.664,"(0.0, 0.0, 0.0, 0.0, 0.0, 0.0, 0.0, 0.0, 0.0)",0,1700075612,596725225,IMU1_Frame,-2.399e-05,-1.3899999999999998e-06,3.158e-05,"(0.0, 0.0, 0.0, 0.0, 0.0, 0.0, 0.0, 0.0, 0.0)","$VNYMR,+175.426,+003.571,-000.363,-00.2399,-00.0139,+00.3158,+00.575,+00.054,-09.664,-00.001116,-00.000597,+00.000432*6C
"
1700075612.6587267,0,1700075612,621803045,IMU1_Frame,0,1700075612,621803045,IMU1_Frame,-0.03125149389895413,-0.0019471265860653716,0.9987178340879692,0.039777389328322525,"(0.0, 0.0, 0.0, 0.0, 0.0, 0.0, 0.0, 0.0, 0.0)",-0.000439,0.001711,0.000581,"(0.0, 0.0, 0.0, 0.0, 0.0, 0.0, 0.0, 0.0, 0.0)",0.586,0.091,-9.662,"(0.0, 0.0, 0.0, 0.0, 0.0, 0.0, 0.0, 0.0, 0.0)",0,1700075612,621803045,IMU1_Frame,-2.3860000000000002e-05,-1.3899999999999998e-06,3.166e-05,"(0.0, 0.0, 0.0, 0.0, 0.0, 0.0, 0.0, 0.0, 0.0)","$VNYMR,+175.427,+003.570,-000.366,-00.2386,-00.0139,+00.3166,+00.586,+00.091,-09.662,-00.000439,+00.001711,+00.000581*62
"
1700075612.6587415,0,1700075612,646732330,IMU1_Frame,0,1700075612,646732330,IMU1_Frame,-0.03125253525786174,-0.0019732729571499477,0.9987177827700593,0.03977657115249408,"(0.0, 0.0, 0.0, 0.0, 0.0, 0.0, 0.0, 0.0, 0.0)",0.000421,0.000502,-3.7e-05,"(0.0, 0.0, 0.0, 0.0, 0.0, 0.0, 0.0, 0.0, 0.0)",0.594,0.077,-9.665,"(0.0, 0.0, 0.0, 0.0, 0.0, 0.0, 0.0, 0.0, 0.0)",0,1700075612,646732330,IMU1_Frame,-2.387e-05,-1.72e-06,3.108e-05,"(0.0, 0.0, 0.0, 0.0, 0.0, 0.0, 0.0, 0.0, 0.0)","$VNYMR,+175.427,+003.570,-000.369,-00.2387,-00.0172,+00.3108,+00.594,+00.077,-09.665,+00.000421,+00.000502,-00.000037*67
"
1700075612.7027414,0,1700075612,671716451,IMU1_Frame,0,1700075612,671716451,IMU1_Frame,-0.031261927500008266,-0.0019906278122105107,0.9987178247301729,0.03976727116774857,"(0.0, 0.0, 0.0, 0.0, 0.0, 0.0, 0.0, 0.0, 0.0)",-0.000455,0.000878,-0.000253,"(0.0, 0.0, 0.0, 0.0, 0.0, 0.0, 0.0, 0.0, 0.0)",0.624,0.078,-9.652,"(0.0, 0.0, 0.0, 0.0, 0.0, 0.0, 0.0, 0.0, 0.0)",0,1700075612,671716451,IMU1_Frame,-2.412e-05,-1.52e-06,3.121e-05,"(0.0, 0.0, 0.0, 0.0, 0.0, 0.0, 0.0, 0.0, 0.0)","$VNYMR,+175.428,+003.571,-000.371,-00.2412,-00.0152,+00.3121,+00.624,+00.078,-09.652,-00.000455,+00.000878,-00.000253*64
"
1700075612.7039802,0,1700075612,696877479,IMU1_Frame,0,1700075612,696877479,IMU1_Frame,-0.03128842068281535,-0.001998296879165048,0.9987169953106101,0.039766880925019975,"(0.0, 0.0, 0.0, 0.0, 0.0, 0.0, 0.0, 0.0, 0.0)",7.6e-05,0.002069,9.7e-05,"(0.0, 0.0, 0.0, 0.0, 0.0, 0.0, 0.0, 0.0, 0.0)",0.618,0.055,-9.623,"(0.0, 0.0, 0.0, 0.0, 0.0, 0.0, 0.0, 0.0, 0.0)",0,1700075612,696877479,IMU1_Frame,-2.3919999999999998e-05,-1.13e-06,3.129e-05,"(0.0, 0.0, 0.0, 0.0, 0.0, 0.0, 0.0, 0.0, 0.0)","$VNYMR,+175.428,+003.574,-000.372,-00.2392,-00.0113,+00.3129,+00.618,+00.055,-09.623,+00.000076,+00.002069,+00.000097*63
"
1700075612.7465847,0,1700075612,721604347,IMU1_Frame,0,1700075612,721604347,IMU1_Frame,-0.03129677166820651,-0.001989505750434168,0.9987170888813609,0.03975839944410605,"(0.0, 0.0, 0.0, 0.0, 0.0, 0.0, 0.0, 0.0, 0.0)",-0.000149,0.000673,0.000796,"(0.0, 0.0, 0.0, 0.0, 0.0, 0.0, 0.0, 0.0, 0.0)",0.599,0.045,-9.633,"(0.0, 0.0, 0.0, 0.0, 0.0, 0.0, 0.0, 0.0, 0.0)",0,1700075612,721604347,IMU1_Frame,-2.387e-05,-1.59e-06,3.137e-05,"(0.0, 0.0, 0.0, 0.0, 0.0, 0.0, 0.0, 0.0, 0.0)","$VNYMR,+175.429,+003.575,-000.371,-00.2387,-00.0159,+00.3137,+00.599,+00.045,-09.633,-00.000149,+00.000673,+00.000796*6D
"
1700075612.7907102,0,1700075612,746614933,IMU1_Frame,0,1700075612,746614933,IMU1_Frame,-0.03130481033377582,-0.001971452948682706,0.9987165055450793,0.03976762219523619,"(0.0, 0.0, 0.0, 0.0, 0.0, 0.0, 0.0, 0.0, 0.0)",0.000116,0.001376,-0.000681,"(0.0, 0.0, 0.0, 0.0, 0.0, 0.0, 0.0, 0.0, 0.0)",0.594,0.036,-9.63,"(0.0, 0.0, 0.0, 0.0, 0.0, 0.0, 0.0, 0.0, 0.0)",0,1700075612,746614933,IMU1_Frame,-2.412e-05,-1.65e-06,3.1280000000000005e-05,"(0.0, 0.0, 0.0, 0.0, 0.0, 0.0, 0.0, 0.0, 0.0)","$VNYMR,+175.428,+003.576,-000.369,-00.2412,-00.0165,+00.3128,+00.594,+00.036,-09.630,+00.000116,+00.001376,-00.000681*6A
"
1700075612.7907314,0,1700075612,771889686,IMU1_Frame,0,1700075612,771889686,IMU1_Frame,-0.031312831628262684,-0.0019536732715695216,0.9987162688118558,0.03976812978621361,"(0.0, 0.0, 0.0, 0.0, 0.0, 0.0, 0.0, 0.0, 0.0)",-0.000321,0.00056,-0.000213,"(0.0, 0.0, 0.0, 0.0, 0.0, 0.0, 0.0, 0.0, 0.0)",0.589,0.039,-9.634,"(0.0, 0.0, 0.0, 0.0, 0.0, 0.0, 0.0, 0.0, 0.0)",0,1700075612,771889686,IMU1_Frame,-2.418e-05,-1.5100000000000002e-06,3.135e-05,"(0.0, 0.0, 0.0, 0.0, 0.0, 0.0, 0.0, 0.0, 0.0)","$VNYMR,+175.428,+003.577,-000.367,-00.2418,-00.0151,+00.3135,+00.589,+00.039,-09.634,-00.000321,+00.000560,-00.000213*6C
"
1700075612.8347354,0,1700075612,796596050,IMU1_Frame,0,1700075612,796596050,IMU1_Frame,-0.03131177366829084,-0.0019278001869729687,0.998716666628174,0.03976023409505084,"(0.0, 0.0, 0.0, 0.0, 0.0, 0.0, 0.0, 0.0, 0.0)",0.000279,0.000812,-0.000522,"(0.0, 0.0, 0.0, 0.0, 0.0, 0.0, 0.0, 0.0, 0.0)",0.599,0.077,-9.666,"(0.0, 0.0, 0.0, 0.0, 0.0, 0.0, 0.0, 0.0, 0.0)",0,1700075612,796596050,IMU1_Frame,-2.381e-05,-1.66e-06,3.115e-05,"(0.0, 0.0, 0.0, 0.0, 0.0, 0.0, 0.0, 0.0, 0.0)","$VNYMR,+175.429,+003.577,-000.364,-00.2381,-00.0166,+00.3115,+00.599,+00.077,-09.666,+00.000279,+00.000812,-00.000522*64
"
1700075612.8347723,0,1700075612,821633100,IMU1_Frame,0,1700075612,821633100,IMU1_Frame,-0.031312103740117544,-0.0019367888836897974,0.9987169967000009,0.039751245398333926,"(0.0, 0.0, 0.0, 0.0, 0.0, 0.0, 0.0, 0.0, 0.0)",-0.002349,0.001998,5.6e-05,"(0.0, 0.0, 0.0, 0.0, 0.0, 0.0, 0.0, 0.0, 0.0)",0.61,0.055,-9.649,"(0.0, 0.0, 0.0, 0.0, 0.0, 0.0, 0.0, 0.0, 0.0)",0,1700075612,821633100,IMU1_Frame,-2.393e-05,-1.65e-06,3.137e-05,"(0.0, 0.0, 0.0, 0.0, 0.0, 0.0, 0.0, 0.0, 0.0)","$VNYMR,+175.430,+003.577,-000.365,-00.2393,-00.0165,+00.3137,+00.610,+00.055,-09.649,-00.002349,+00.001998,+00.000056*66
"
1700075612.8786526,0,1700075612,846618413,IMU1_Frame,0,1700075612,846618413,IMU1_Frame,-0.03131238270399316,-0.00194659734309533,0.9987183667225373,0.03971611032377203,"(0.0, 0.0, 0.0, 0.0, 0.0, 0.0, 0.0, 0.0, 0.0)",0.00052,-0.00027,0.000664,"(0.0, 0.0, 0.0, 0.0, 0.0, 0.0, 0.0, 0.0, 0.0)",0.618,0.082,-9.658,"(0.0, 0.0, 0.0, 0.0, 0.0, 0.0, 0.0, 0.0, 0.0)",0,1700075612,846618413,IMU1_Frame,-2.412e-05,-1.98e-06,3.143e-05,"(0.0, 0.0, 0.0, 0.0, 0.0, 0.0, 0.0, 0.0, 0.0)","$VNYMR,+175.434,+003.577,-000.366,-00.2412,-00.0198,+00.3143,+00.618,+00.082,-09.658,+00.000520,-00.000270,+00.000664*6C
"
1700075612.878682,0,1700075612,871649742,IMU1_Frame,0,1700075612,871649742,IMU1_Frame,-0.031313041592586105,-0.0019645747825712137,0.9987190256111302,0.03969813288429598,"(0.0, 0.0, 0.0, 0.0, 0.0, 0.0, 0.0, 0.0, 0.0)",0.000583,-0.001734,0.001296,"(0.0, 0.0, 0.0, 0.0, 0.0, 0.0, 0.0, 0.0, 0.0)",0.599,0.08,-9.646,"(0.0, 0.0, 0.0, 0.0, 0.0, 0.0, 0.0, 0.0, 0.0)",0,1700075612,871649742,IMU1_Frame,-2.3919999999999998e-05,-1.26e-06,3.158e-05,"(0.0, 0.0, 0.0, 0.0, 0.0, 0.0, 0.0, 0.0, 0.0)","$VNYMR,+175.436,+003.577,-000.368,-00.2392,-00.0126,+00.3158,+00.599,+00.080,-09.646,+00.000583,-00.001734,+00.001296*62
"
1700075612.9227026,0,1700075612,896624088,IMU1_Frame,0,1700075612,896624088,IMU1_Frame,-0.031313353577775385,-0.0019738367715662793,0.9987197011351956,0.03968042868390258,"(0.0, 0.0, 0.0, 0.0, 0.0, 0.0, 0.0, 0.0, 0.0)",-0.000759,-0.001236,0.000659,"(0.0, 0.0, 0.0, 0.0, 0.0, 0.0, 0.0, 0.0, 0.0)",0.595,0.079,-9.67,"(0.0, 0.0, 0.0, 0.0, 0.0, 0.0, 0.0, 0.0, 0.0)",0,1700075612,896624088,IMU1_Frame,-2.387e-05,-1.72e-06,3.137e-05,"(0.0, 0.0, 0.0, 0.0, 0.0, 0.0, 0.0, 0.0, 0.0)","$VNYMR,+175.438,+003.577,-000.369,-00.2387,-00.0172,+00.3137,+00.595,+00.079,-09.670,-00.000759,-00.001236,+00.000659*6C
"
1700075612.9278185,0,1700075612,921566009,IMU1_Frame,0,1700075612,921566009,IMU1_Frame,-0.031296563156048146,-0.001992783129784621,0.9987212468951279,0.039653813817315954,"(0.0, 0.0, 0.0, 0.0, 0.0, 0.0, 0.0, 0.0, 0.0)",-0.000434,0.001142,0.000699,"(0.0, 0.0, 0.0, 0.0, 0.0, 0.0, 0.0, 0.0, 0.0)",0.588,0.069,-9.654,"(0.0, 0.0, 0.0, 0.0, 0.0, 0.0, 0.0, 0.0, 0.0)",0,1700075612,921566009,IMU1_Frame,-2.387e-05,-1.72e-06,3.1519999999999996e-05,"(0.0, 0.0, 0.0, 0.0, 0.0, 0.0, 0.0, 0.0, 0.0)","$VNYMR,+175.441,+003.575,-000.371,-00.2387,-00.0172,+00.3152,+00.588,+00.069,-09.654,-00.000434,+00.001142,+00.000699*63
"
1700075612.9707248,0,1700075612,946550369,IMU1_Frame,0,1700075612,946550369,IMU1_Frame,-0.0312969091996625,-0.0020014986167426014,0.998721229466786,0.03965354070177023,"(0.0, 0.0, 0.0, 0.0, 0.0, 0.0, 0.0, 0.0, 0.0)",-0.000705,0.000286,0.001272,"(0.0, 0.0, 0.0, 0.0, 0.0, 0.0, 0.0, 0.0, 0.0)",0.606,0.065,-9.626,"(0.0, 0.0, 0.0, 0.0, 0.0, 0.0, 0.0, 0.0, 0.0)",0,1700075612,946550369,IMU1_Frame,-2.387e-05,-1.79e-06,3.166e-05,"(0.0, 0.0, 0.0, 0.0, 0.0, 0.0, 0.0, 0.0, 0.0)","$VNYMR,+175.441,+003.575,-000.372,-00.2387,-00.0179,+00.3166,+00.606,+00.065,-09.626,-00.000705,+00.000286,+00.001272*6B
"
1700075613.014761,0,1700075612,971515655,IMU1_Frame,0,1700075612,971515655,IMU1_Frame,-0.03129696158804846,-0.002000679264889943,0.9987201909972617,0.03967968714882388,"(0.0, 0.0, 0.0, 0.0, 0.0, 0.0, 0.0, 0.0, 0.0)",-6e-06,0.001509,0.000314,"(0.0, 0.0, 0.0, 0.0, 0.0, 0.0, 0.0, 0.0, 0.0)",0.592,0.054,-9.636,"(0.0, 0.0, 0.0, 0.0, 0.0, 0.0, 0.0, 0.0, 0.0)",0,1700075612,971515655,IMU1_Frame,-2.406e-05,-1.91e-06,3.143e-05,"(0.0, 0.0, 0.0, 0.0, 0.0, 0.0, 0.0, 0.0, 0.0)","$VNYMR,+175.438,+003.575,-000.372,-00.2406,-00.0191,+00.3143,+00.592,+00.054,-09.636,-00.000006,+00.001509,+00.000314*62
"
1700075613.014822,0,1700075612,996472358,IMU1_Frame,0,1700075612,996472358,IMU1_Frame,-0.03129619979460228,-0.001984340753615327,0.9987216102565737,0.03964537144114657,"(0.0, 0.0, 0.0, 0.0, 0.0, 0.0, 0.0, 0.0, 0.0)",0.000329,0.001185,0.000485,"(0.0, 0.0, 0.0, 0.0, 0.0, 0.0, 0.0, 0.0, 0.0)",0.605,0.05,-9.668,"(0.0, 0.0, 0.0, 0.0, 0.0, 0.0, 0.0, 0.0, 0.0)",0,1700075612,996472358,IMU1_Frame,-2.3749999999999998e-05,-1.8599999999999998e-06,3.16e-05,"(0.0, 0.0, 0.0, 0.0, 0.0, 0.0, 0.0, 0.0, 0.0)","$VNYMR,+175.442,+003.575,-000.370,-00.2375,-00.0186,+00.3160,+00.605,+00.050,-09.668,+00.000329,+00.001185,+00.000485*6C
"
1700075613.0588052,0,1700075613,21512985,IMU1_Frame,0,1700075613,21512985,IMU1_Frame,-0.03130399996653009,-0.001970113388792757,0.9987258650780997,0.03953257724120983,"(0.0, 0.0, 0.0, 0.0, 0.0, 0.0, 0.0, 0.0, 0.0)",0.000425,0.001031,4.2e-05,"(0.0, 0.0, 0.0, 0.0, 0.0, 0.0, 0.0, 0.0, 0.0)",0.607,0.04,-9.637,"(0.0, 0.0, 0.0, 0.0, 0.0, 0.0, 0.0, 0.0, 0.0)",0,1700075613,21512985,IMU1_Frame,-2.393e-05,-1.65e-06,3.1440000000000004e-05,"(0.0, 0.0, 0.0, 0.0, 0.0, 0.0, 0.0, 0.0, 0.0)","$VNYMR,+175.455,+003.576,-000.368,-00.2393,-00.0165,+00.3144,+00.607,+00.040,-09.637,+00.000425,+00.001031,+00.000042*60
"
1700075613.0588243,0,1700075613,46586513,IMU1_Frame,0,1700075613,46586513,IMU1_Frame,-0.03131235332106555,-0.0019613243813118367,0.9987259561848045,0.03952409618088776,"(0.0, 0.0, 0.0, 0.0, 0.0, 0.0, 0.0, 0.0, 0.0)",-0.00073,-0.000124,0.000229,"(0.0, 0.0, 0.0, 0.0, 0.0, 0.0, 0.0, 0.0, 0.0)",0.637,0.048,-9.656,"(0.0, 0.0, 0.0, 0.0, 0.0, 0.0, 0.0, 0.0, 0.0)",0,1700075613,46586513,IMU1_Frame,-2.368e-05,-1.8599999999999998e-06,3.167e-05,"(0.0, 0.0, 0.0, 0.0, 0.0, 0.0, 0.0, 0.0, 0.0)","$VNYMR,+175.456,+003.577,-000.367,-00.2368,-00.0186,+00.3167,+00.637,+00.048,-09.656,-00.000730,-00.000124,+00.000229*65
"
1700075613.1027966,0,1700075613,71802377,IMU1_Frame,0,1700075613,71802377,IMU1_Frame,-0.03131159561693042,-0.0019449863068133207,0.9987273693261,0.0394897805407461,"(0.0, 0.0, 0.0, 0.0, 0.0, 0.0, 0.0, 0.0, 0.0)",-0.000144,-0.000448,0.001134,"(0.0, 0.0, 0.0, 0.0, 0.0, 0.0, 0.0, 0.0, 0.0)",0.617,0.047,-9.662,"(0.0, 0.0, 0.0, 0.0, 0.0, 0.0, 0.0, 0.0, 0.0)",0,1700075613,71802377,IMU1_Frame,-2.38e-05,-1.3899999999999998e-06,3.159e-05,"(0.0, 0.0, 0.0, 0.0, 0.0, 0.0, 0.0, 0.0, 0.0)","$VNYMR,+175.460,+003.577,-000.365,-00.2380,-00.0139,+00.3159,+00.617,+00.047,-09.662,-00.000144,-00.000448,+00.001134*63
"
1700075613.102843,0,1700075613,96627950,IMU1_Frame,0,1700075613,96627950,IMU1_Frame,-0.03132027714233687,-0.001945186601957531,0.9987277873176282,0.03947231090834416,"(0.0, 0.0, 0.0, 0.0, 0.0, 0.0, 0.0, 0.0, 0.0)",-0.001047,0.001433,0.000354,"(0.0, 0.0, 0.0, 0.0, 0.0, 0.0, 0.0, 0.0, 0.0)",0.589,0.064,-9.648,"(0.0, 0.0, 0.0, 0.0, 0.0, 0.0, 0.0, 0.0, 0.0)",0,1700075613,96627950,IMU1_Frame,-2.38e-05,-1.53e-06,3.13e-05,"(0.0, 0.0, 0.0, 0.0, 0.0, 0.0, 0.0, 0.0, 0.0)","$VNYMR,+175.462,+003.578,-000.365,-00.2380,-00.0153,+00.3130,+00.589,+00.064,-09.648,-00.001047,+00.001433,+00.000354*6D
"
1700075613.14702,0,1700075613,121464490,IMU1_Frame,0,1700075613,121464490,IMU1_Frame,-0.031329234745011376,-0.0019551963460564424,0.9987295645285575,0.03941970565768063,"(0.0, 0.0, 0.0, 0.0, 0.0, 0.0, 0.0, 0.0, 0.0)",-0.001087,0.000797,0.000289,"(0.0, 0.0, 0.0, 0.0, 0.0, 0.0, 0.0, 0.0, 0.0)",0.603,0.07,-9.682,"(0.0, 0.0, 0.0, 0.0, 0.0, 0.0, 0.0, 0.0, 0.0)",0,1700075613,121464490,IMU1_Frame,-2.4e-05,-1.8499999999999999e-06,3.0930000000000004e-05,"(0.0, 0.0, 0.0, 0.0, 0.0, 0.0, 0.0, 0.0, 0.0)","$VNYMR,+175.468,+003.579,-000.366,-00.2400,-00.0185,+00.3093,+00.603,+00.070,-09.682,-00.001087,+00.000797,+00.000289*6A
"
1700075613.1548722,0,1700075613,146679878,IMU1_Frame,0,1700075613,146679878,IMU1_Frame,-0.031338414123866315,-0.0019616518107955167,0.9987268663399416,0.039480402393776176,"(0.0, 0.0, 0.0, 0.0, 0.0, 0.0, 0.0, 0.0, 0.0)",0.000399,-0.000324,0.000703,"(0.0, 0.0, 0.0, 0.0, 0.0, 0.0, 0.0, 0.0, 0.0)",0.607,0.109,-9.654,"(0.0, 0.0, 0.0, 0.0, 0.0, 0.0, 0.0, 0.0, 0.0)",0,1700075613,146679878,IMU1_Frame,-2.387e-05,-1.8499999999999999e-06,3.137e-05,"(0.0, 0.0, 0.0, 0.0, 0.0, 0.0, 0.0, 0.0, 0.0)","$VNYMR,+175.461,+003.580,-000.367,-00.2387,-00.0185,+00.3137,+00.607,+00.109,-09.654,+00.000399,-00.000324,+00.000703*65
"
1700075613.198655,0,1700075613,171429395,IMU1_Frame,0,1700075613,171429395,IMU1_Frame,-0.03133946505326468,-0.0019875249299891092,0.9987264700793843,0.03948829747660154,"(0.0, 0.0, 0.0, 0.0, 0.0, 0.0, 0.0, 0.0, 0.0)",0.000397,-9.7e-05,0.000124,"(0.0, 0.0, 0.0, 0.0, 0.0, 0.0, 0.0, 0.0, 0.0)",0.577,0.054,-9.657,"(0.0, 0.0, 0.0, 0.0, 0.0, 0.0, 0.0, 0.0, 0.0)",0,1700075613,171429395,IMU1_Frame,-2.38e-05,-1.59e-06,3.108e-05,"(0.0, 0.0, 0.0, 0.0, 0.0, 0.0, 0.0, 0.0, 0.0)","$VNYMR,+175.460,+003.580,-000.370,-00.2380,-00.0159,+00.3108,+00.577,+00.054,-09.657,+00.000397,-00.000097,+00.000124*60
"
1700075613.2426522,0,1700075613,196399927,IMU1_Frame,0,1700075613,196399927,IMU1_Frame,-0.03133042225744239,-0.0019788823447364334,0.9987264139670247,0.0394973253575895,"(0.0, 0.0, 0.0, 0.0, 0.0, 0.0, 0.0, 0.0, 0.0)",-0.00158,-4.2e-05,0.000848,"(0.0, 0.0, 0.0, 0.0, 0.0, 0.0, 0.0, 0.0, 0.0)",0.602,0.038,-9.651,"(0.0, 0.0, 0.0, 0.0, 0.0, 0.0, 0.0, 0.0, 0.0)",0,1700075613,196399927,IMU1_Frame,-2.406e-05,-1.78e-06,3.136e-05,"(0.0, 0.0, 0.0, 0.0, 0.0, 0.0, 0.0, 0.0, 0.0)","$VNYMR,+175.459,+003.579,-000.369,-00.2406,-00.0178,+00.3136,+00.602,+00.038,-09.651,-00.001580,-00.000042,+00.000848*62
"
1700075613.242698,0,1700075613,221384286,IMU1_Frame,0,1700075613,221384286,IMU1_Frame,-0.031338741458286794,-0.0019706408289795587,0.9987271936743621,0.03947141337559226,"(0.0, 0.0, 0.0, 0.0, 0.0, 0.0, 0.0, 0.0, 0.0)",-8.9e-05,0.000281,0.001306,"(0.0, 0.0, 0.0, 0.0, 0.0, 0.0, 0.0, 0.0, 0.0)",0.581,0.069,-9.655,"(0.0, 0.0, 0.0, 0.0, 0.0, 0.0, 0.0, 0.0, 0.0)",0,1700075613,221384286,IMU1_Frame,-2.399e-05,-1.65e-06,3.151e-05,"(0.0, 0.0, 0.0, 0.0, 0.0, 0.0, 0.0, 0.0, 0.0)","$VNYMR,+175.462,+003.580,-000.368,-00.2399,-00.0165,+00.3151,+00.581,+00.069,-09.655,-00.000089,+00.000281,+00.001306*6F
"
1700075613.2866337,0,1700075613,246509313,IMU1_Frame,0,1700075613,246509313,IMU1_Frame,-0.031329405248787086,-0.0019524623471229303,0.9987261207074122,0.039506861103660834,"(0.0, 0.0, 0.0, 0.0, 0.0, 0.0, 0.0, 0.0, 0.0)",-0.001789,5.9e-05,0.001025,"(0.0, 0.0, 0.0, 0.0, 0.0, 0.0, 0.0, 0.0, 0.0)",0.59,0.032,-9.624,"(0.0, 0.0, 0.0, 0.0, 0.0, 0.0, 0.0, 0.0, 0.0)",0,1700075613,246509313,IMU1_Frame,-2.4069999999999998e-05,-2.4400000000000004e-06,3.1219999999999996e-05,"(0.0, 0.0, 0.0, 0.0, 0.0, 0.0, 0.0, 0.0, 0.0)","$VNYMR,+175.458,+003.579,-000.366,-00.2407,-00.0244,+00.3122,+00.590,+00.032,-09.624,-00.001789,+00.000059,+00.001025*61
"
1700075613.286673,0,1700075613,271345853,IMU1_Frame,0,1700075613,271345853,IMU1_Frame,-0.03132860606090436,-0.00192248826083532,0.9987213372530622,0.03962969841700655,"(0.0, 0.0, 0.0, 0.0, 0.0, 0.0, 0.0, 0.0, 0.0)",0.00015,0.000621,0.00014,"(0.0, 0.0, 0.0, 0.0, 0.0, 0.0, 0.0, 0.0, 0.0)",0.605,0.034,-9.648,"(0.0, 0.0, 0.0, 0.0, 0.0, 0.0, 0.0, 0.0, 0.0)",0,1700075613,271345853,IMU1_Frame,-2.4069999999999998e-05,-2.51e-06,3.115e-05,"(0.0, 0.0, 0.0, 0.0, 0.0, 0.0, 0.0, 0.0, 0.0)","$VNYMR,+175.444,+003.579,-000.363,-00.2407,-00.0251,+00.3115,+00.605,+00.034,-09.648,+00.000150,+00.000621,+00.000140*65
"
1700075613.3345706,0,1700075613,296534538,IMU1_Frame,0,1700075613,296534538,IMU1_Frame,-0.031319084616277866,-0.0018928630151641673,0.9987168091701651,0.03975257336787521,"(0.0, 0.0, 0.0, 0.0, 0.0, 0.0, 0.0, 0.0, 0.0)",-0.000551,8.9e-05,0.000506,"(0.0, 0.0, 0.0, 0.0, 0.0, 0.0, 0.0, 0.0, 0.0)",0.602,0.032,-9.638,"(0.0, 0.0, 0.0, 0.0, 0.0, 0.0, 0.0, 0.0, 0.0)",0,1700075613,296534538,IMU1_Frame,-2.426e-05,-2.3e-06,3.15e-05,"(0.0, 0.0, 0.0, 0.0, 0.0, 0.0, 0.0, 0.0, 0.0)","$VNYMR,+175.430,+003.578,-000.360,-00.2426,-00.0230,+00.3150,+00.602,+00.032,-09.638,-00.000551,+00.000089,+00.000506*66
"
1700075613.3346024,0,1700075613,321535825,IMU1_Frame,0,1700075613,321535825,IMU1_Frame,-0.031328014492496205,-0.0018889603597009846,0.9987120217977937,0.03986583566514769,"(0.0, 0.0, 0.0, 0.0, 0.0, 0.0, 0.0, 0.0, 0.0)",-0.000907,0.001435,0.000517,"(0.0, 0.0, 0.0, 0.0, 0.0, 0.0, 0.0, 0.0, 0.0)",0.611,0.053,-9.607,"(0.0, 0.0, 0.0, 0.0, 0.0, 0.0, 0.0, 0.0, 0.0)",0,1700075613,321535825,IMU1_Frame,-2.42e-05,-2.4400000000000004e-06,3.1650000000000004e-05,"(0.0, 0.0, 0.0, 0.0, 0.0, 0.0, 0.0, 0.0, 0.0)","$VNYMR,+175.417,+003.579,-000.360,-00.2420,-00.0244,+00.3165,+00.611,+00.053,-09.607,-00.000907,+00.001435,+00.000517*65
"
1700075613.3826396,0,1700075613,346596717,IMU1_Frame,0,1700075613,346596717,IMU1_Frame,-0.03132861052312372,-0.0018935748768656266,0.9987067783292626,0.03999629302899788,"(0.0, 0.0, 0.0, 0.0, 0.0, 0.0, 0.0, 0.0, 0.0)",-0.000899,0.000905,8.6e-05,"(0.0, 0.0, 0.0, 0.0, 0.0, 0.0, 0.0, 0.0, 0.0)",0.6,0.065,-9.698,"(0.0, 0.0, 0.0, 0.0, 0.0, 0.0, 0.0, 0.0, 0.0)",0,1700075613,346596717,IMU1_Frame,-2.42e-05,-2.7e-06,3.1140000000000003e-05,"(0.0, 0.0, 0.0, 0.0, 0.0, 0.0, 0.0, 0.0, 0.0)","$VNYMR,+175.402,+003.579,-000.361,-00.2420,-00.0270,+00.3114,+00.600,+00.065,-09.698,-00.000899,+00.000905,+00.000086*66
"
1700075613.382667,0,1700075613,371549606,IMU1_Frame,0,1700075613,371549606,IMU1_Frame,-0.031329257979976766,-0.0018973690726578096,0.9987004668855787,0.04015289563098949,"(0.0, 0.0, 0.0, 0.0, 0.0, 0.0, 0.0, 0.0, 0.0)",-0.000603,0.000618,-0.000898,"(0.0, 0.0, 0.0, 0.0, 0.0, 0.0, 0.0, 0.0, 0.0)",0.612,0.092,-9.654,"(0.0, 0.0, 0.0, 0.0, 0.0, 0.0, 0.0, 0.0, 0.0)",0,1700075613,371549606,IMU1_Frame,-2.42e-05,-2.6300000000000002e-06,3.151e-05,"(0.0, 0.0, 0.0, 0.0, 0.0, 0.0, 0.0, 0.0, 0.0)","$VNYMR,+175.384,+003.579,-000.362,-00.2420,-00.0263,+00.3151,+00.612,+00.092,-09.654,-00.000603,+00.000618,-00.000898*6B
"
1700075613.4306624,0,1700075613,396445274,IMU1_Frame,0,1700075613,396445274,IMU1_Frame,-0.03133056068869411,-0.001919413844739321,0.9986951524197257,0.04028280465366834,"(0.0, 0.0, 0.0, 0.0, 0.0, 0.0, 0.0, 0.0, 0.0)",-0.00012,0.000111,-0.000257,"(0.0, 0.0, 0.0, 0.0, 0.0, 0.0, 0.0, 0.0, 0.0)",0.586,0.066,-9.653,"(0.0, 0.0, 0.0, 0.0, 0.0, 0.0, 0.0, 0.0, 0.0)",0,1700075613,396445274,IMU1_Frame,-2.3880000000000002e-05,-2.58e-06,3.1740000000000004e-05,"(0.0, 0.0, 0.0, 0.0, 0.0, 0.0, 0.0, 0.0, 0.0)","$VNYMR,+175.369,+003.579,-000.365,-00.2388,-00.0258,+00.3174,+00.586,+00.066,-09.653,-00.000120,+00.000111,-00.000257*66
"
1700075613.4307137,0,1700075613,421326875,IMU1_Frame,0,1700075613,421326875,IMU1_Frame,-0.03133183579443392,-0.0019420051505137212,0.9986905255545337,0.04039528251362145,"(0.0, 0.0, 0.0, 0.0, 0.0, 0.0, 0.0, 0.0, 0.0)",-0.000251,0.001309,0.000398,"(0.0, 0.0, 0.0, 0.0, 0.0, 0.0, 0.0, 0.0, 0.0)",0.598,0.095,-9.666,"(0.0, 0.0, 0.0, 0.0, 0.0, 0.0, 0.0, 0.0, 0.0)",0,1700075613,421326875,IMU1_Frame,-2.425e-05,-2.24e-06,3.172e-05,"(0.0, 0.0, 0.0, 0.0, 0.0, 0.0, 0.0, 0.0, 0.0)","$VNYMR,+175.356,+003.579,-000.368,-00.2425,-00.0224,+00.3172,+00.598,+00.095,-09.666,-00.000251,+00.001309,+00.000398*64
"
1700075613.4744394,0,1700075613,446241378,IMU1_Frame,0,1700075613,446241378,IMU1_Frame,-0.0313411584888899,-0.0019462635713772935,0.9986849411369603,0.04052569788358314,"(0.0, 0.0, 0.0, 0.0, 0.0, 0.0, 0.0, 0.0, 0.0)",0.000417,0.000749,0.001149,"(0.0, 0.0, 0.0, 0.0, 0.0, 0.0, 0.0, 0.0, 0.0)",0.615,0.085,-9.633,"(0.0, 0.0, 0.0, 0.0, 0.0, 0.0, 0.0, 0.0, 0.0)",0,1700075613,446241378,IMU1_Frame,-2.4069999999999998e-05,-2.51e-06,3.159e-05,"(0.0, 0.0, 0.0, 0.0, 0.0, 0.0, 0.0, 0.0, 0.0)","$VNYMR,+175.341,+003.580,-000.369,-00.2407,-00.0251,+00.3159,+00.615,+00.085,-09.633,+00.000417,+00.000749,+00.001149*65
"
1700075613.4744453,0,1700075613,471187114,IMU1_Frame,0,1700075613,471187114,IMU1_Frame,-0.03135889390165634,-0.0019406269364742454,0.9986780204748128,0.04068249206805555,"(0.0, 0.0, 0.0, 0.0, 0.0, 0.0, 0.0, 0.0, 0.0)",0.00111,-1e-05,0.000331,"(0.0, 0.0, 0.0, 0.0, 0.0, 0.0, 0.0, 0.0, 0.0)",0.621,0.07,-9.642,"(0.0, 0.0, 0.0, 0.0, 0.0, 0.0, 0.0, 0.0, 0.0)",0,1700075613,471187114,IMU1_Frame,-2.4129999999999998e-05,-2.3699999999999998e-06,3.151e-05,"(0.0, 0.0, 0.0, 0.0, 0.0, 0.0, 0.0, 0.0, 0.0)","$VNYMR,+175.323,+003.582,-000.369,-00.2413,-00.0237,+00.3151,+00.621,+00.070,-09.642,+00.001110,-00.000010,+00.000331*67
"
1700075613.5185957,0,1700075613,496245861,IMU1_Frame,0,1700075613,496245861,IMU1_Frame,-0.03136715032150272,-0.0019187340105203167,0.9986724488345878,0.04081372660310161,"(0.0, 0.0, 0.0, 0.0, 0.0, 0.0, 0.0, 0.0, 0.0)",0.000787,-0.000311,0.001204,"(0.0, 0.0, 0.0, 0.0, 0.0, 0.0, 0.0, 0.0, 0.0)",0.618,0.049,-9.649,"(0.0, 0.0, 0.0, 0.0, 0.0, 0.0, 0.0, 0.0, 0.0)",0,1700075613,496245861,IMU1_Frame,-2.419e-05,-2.11e-06,3.172e-05,"(0.0, 0.0, 0.0, 0.0, 0.0, 0.0, 0.0, 0.0, 0.0)","$VNYMR,+175.308,+003.583,-000.367,-00.2419,-00.0211,+00.3172,+00.618,+00.049,-09.649,+00.000787,-00.000311,+00.001204*68
"
1700075613.527062,0,1700075613,521367549,IMU1_Frame,0,1700075613,521367549,IMU1_Frame,-0.03136670314916613,-0.0018969242883892545,0.9986667736881958,0.04095371464233784,"(0.0, 0.0, 0.0, 0.0, 0.0, 0.0, 0.0, 0.0, 0.0)",0.000909,-0.000761,-4.7e-05,"(0.0, 0.0, 0.0, 0.0, 0.0, 0.0, 0.0, 0.0, 0.0)",0.623,0.033,-9.654,"(0.0, 0.0, 0.0, 0.0, 0.0, 0.0, 0.0, 0.0, 0.0)",0,1700075613,521367549,IMU1_Frame,-2.4069999999999998e-05,-2.7e-06,3.166e-05,"(0.0, 0.0, 0.0, 0.0, 0.0, 0.0, 0.0, 0.0, 0.0)","$VNYMR,+175.292,+003.583,-000.365,-00.2407,-00.0270,+00.3166,+00.623,+00.033,-09.654,+00.000909,-00.000761,-00.000047*65
"
1700075613.5745037,0,1700075613,546269416,IMU1_Frame,0,1700075613,546269416,IMU1_Frame,-0.03136657621358138,-0.0018843771405144198,0.9986617792772203,0.04107599822628841,"(0.0, 0.0, 0.0, 0.0, 0.0, 0.0, 0.0, 0.0, 0.0)",7.4e-05,9.3e-05,-0.000203,"(0.0, 0.0, 0.0, 0.0, 0.0, 0.0, 0.0, 0.0, 0.0)",0.603,0.034,-9.685,"(0.0, 0.0, 0.0, 0.0, 0.0, 0.0, 0.0, 0.0, 0.0)",0,1700075613,546269416,IMU1_Frame,-2.406e-05,-2.18e-06,3.166e-05,"(0.0, 0.0, 0.0, 0.0, 0.0, 0.0, 0.0, 0.0, 0.0)","$VNYMR,+175.278,+003.583,-000.364,-00.2406,-00.0218,+00.3166,+00.603,+00.034,-09.685,+00.000074,+00.000093,-00.000203*6B
"
1700075613.6225235,0,1700075613,571238517,IMU1_Frame,0,1700075613,571238517,IMU1_Frame,-0.031366119666649164,-0.0018625676857421105,0.9986560669112683,0.041215984763073525,"(0.0, 0.0, 0.0, 0.0, 0.0, 0.0, 0.0, 0.0, 0.0)",-0.000201,0.000367,0.000864,"(0.0, 0.0, 0.0, 0.0, 0.0, 0.0, 0.0, 0.0, 0.0)",0.602,0.029,-9.664,"(0.0, 0.0, 0.0, 0.0, 0.0, 0.0, 0.0, 0.0, 0.0)",0,1700075613,571238517,IMU1_Frame,-2.426e-05,-2.3e-06,3.135e-05,"(0.0, 0.0, 0.0, 0.0, 0.0, 0.0, 0.0, 0.0, 0.0)","$VNYMR,+175.262,+003.583,-000.362,-00.2426,-00.0230,+00.3135,+00.602,+00.029,-09.664,-00.000201,+00.000367,+00.000864*69
"
1700075613.6225421,0,1700075613,596287965,IMU1_Frame,0,1700075613,596287965,IMU1_Frame,-0.0313568624691188,-0.0018424892094934778,0.9986524095705783,0.04131243479248639,"(0.0, 0.0, 0.0, 0.0, 0.0, 0.0, 0.0, 0.0, 0.0)",-0.001116,2.9e-05,0.000142,"(0.0, 0.0, 0.0, 0.0, 0.0, 0.0, 0.0, 0.0, 0.0)",0.61,0.027,-9.655,"(0.0, 0.0, 0.0, 0.0, 0.0, 0.0, 0.0, 0.0, 0.0)",0,1700075613,596287965,IMU1_Frame,-2.4129999999999998e-05,-2.31e-06,3.136e-05,"(0.0, 0.0, 0.0, 0.0, 0.0, 0.0, 0.0, 0.0, 0.0)","$VNYMR,+175.251,+003.582,-000.360,-00.2413,-00.0231,+00.3136,+00.610,+00.027,-09.655,-00.001116,+00.000029,+00.000142*61
"
1700075613.666555,0,1700075613,621197462,IMU1_Frame,0,1700075613,621197462,IMU1_Frame,-0.03135603420525198,-0.0018119664392989168,0.9986466793113038,0.04145269348363106,"(0.0, 0.0, 0.0, 0.0, 0.0, 0.0, 0.0, 0.0, 0.0)",-0.000756,-0.001368,0.000443,"(0.0, 0.0, 0.0, 0.0, 0.0, 0.0, 0.0, 0.0, 0.0)",0.571,0.047,-9.629,"(0.0, 0.0, 0.0, 0.0, 0.0, 0.0, 0.0, 0.0, 0.0)",0,1700075613,621197462,IMU1_Frame,-2.42e-05,-2.57e-06,3.143e-05,"(0.0, 0.0, 0.0, 0.0, 0.0, 0.0, 0.0, 0.0, 0.0)","$VNYMR,+175.235,+003.582,-000.357,-00.2420,-00.0257,+00.3143,+00.571,+00.047,-09.629,-00.000756,-00.001368,+00.000443*6A
"
1700075613.6665788,0,1700075613,646209239,IMU1_Frame,0,1700075613,646209239,IMU1_Frame,-0.031338699538590385,-0.0018110524328736925,0.9986450500758209,0.041505059443113834,"(0.0, 0.0, 0.0, 0.0, 0.0, 0.0, 0.0, 0.0, 0.0)",-0.000343,0.000846,0.00056,"(0.0, 0.0, 0.0, 0.0, 0.0, 0.0, 0.0, 0.0, 0.0)",0.582,0.057,-9.656,"(0.0, 0.0, 0.0, 0.0, 0.0, 0.0, 0.0, 0.0, 0.0)",0,1700075613,646209239,IMU1_Frame,-2.42e-05,-2.5e-06,3.1650000000000004e-05,"(0.0, 0.0, 0.0, 0.0, 0.0, 0.0, 0.0, 0.0, 0.0)","$VNYMR,+175.229,+003.580,-000.357,-00.2420,-00.0250,+00.3165,+00.582,+00.057,-09.656,-00.000343,+00.000846,+00.000560*63
"
1700075613.7105744,0,1700075613,671483993,IMU1_Frame,0,1700075613,671483993,IMU1_Frame,-0.03132996897721755,-0.0018116897353771943,0.9986456834197237,0.0414963831115721,"(0.0, 0.0, 0.0, 0.0, 0.0, 0.0, 0.0, 0.0, 0.0)",-0.000687,0.001229,0.001139,"(0.0, 0.0, 0.0, 0.0, 0.0, 0.0, 0.0, 0.0, 0.0)",0.604,0.06,-9.652,"(0.0, 0.0, 0.0, 0.0, 0.0, 0.0, 0.0, 0.0, 0.0)",0,1700075613,671483993,IMU1_Frame,-2.414e-05,-2.57e-06,3.151e-05,"(0.0, 0.0, 0.0, 0.0, 0.0, 0.0, 0.0, 0.0, 0.0)","$VNYMR,+175.230,+003.579,-000.357,-00.2414,-00.0257,+00.3151,+00.604,+00.060,-09.652,-00.000687,+00.001229,+00.001139*61
"
1700075613.7106044,0,1700075613,696129083,IMU1_Frame,0,1700075613,696129083,IMU1_Frame,-0.031303824695607906,-0.00181278119703132,0.998646496509286,0.04149649856900038,"(0.0, 0.0, 0.0, 0.0, 0.0, 0.0, 0.0, 0.0, 0.0)",-0.000673,-0.001144,0.000638,"(0.0, 0.0, 0.0, 0.0, 0.0, 0.0, 0.0, 0.0, 0.0)",0.604,0.07,-9.679,"(0.0, 0.0, 0.0, 0.0, 0.0, 0.0, 0.0, 0.0, 0.0)",0,1700075613,696129083,IMU1_Frame,-2.426e-05,-2.57e-06,3.15e-05,"(0.0, 0.0, 0.0, 0.0, 0.0, 0.0, 0.0, 0.0, 0.0)","$VNYMR,+175.230,+003.576,-000.357,-00.2426,-00.0257,+00.3150,+00.604,+00.070,-09.679,-00.000673,-00.001144,+00.000638*64
"
1700075613.7585242,0,1700075613,721106529,IMU1_Frame,0,1700075613,721106529,IMU1_Frame,-0.03131435005336243,-0.0018559915366252319,0.9986461455232157,0.041495093779573035,"(0.0, 0.0, 0.0, 0.0, 0.0, 0.0, 0.0, 0.0, 0.0)",-0.000254,-0.00106,0.000368,"(0.0, 0.0, 0.0, 0.0, 0.0, 0.0, 0.0, 0.0, 0.0)",0.589,0.104,-9.652,"(0.0, 0.0, 0.0, 0.0, 0.0, 0.0, 0.0, 0.0, 0.0)",0,1700075613,721106529,IMU1_Frame,-2.426e-05,-2.57e-06,3.15e-05,"(0.0, 0.0, 0.0, 0.0, 0.0, 0.0, 0.0, 0.0, 0.0)","$VNYMR,+175.230,+003.577,-000.362,-00.2426,-00.0257,+00.3150,+00.589,+00.104,-09.652,-00.000254,-00.001060,+00.000368*68
"
1700075613.7585506,0,1700075613,746156692,IMU1_Frame,0,1700075613,746156692,IMU1_Frame,-0.0313063595140485,-0.0018737850366077017,0.9986463839095278,0.04149458624974524,"(0.0, 0.0, 0.0, 0.0, 0.0, 0.0, 0.0, 0.0, 0.0)",-0.000476,0.000362,0.000915,"(0.0, 0.0, 0.0, 0.0, 0.0, 0.0, 0.0, 0.0, 0.0)",0.586,0.095,-9.599,"(0.0, 0.0, 0.0, 0.0, 0.0, 0.0, 0.0, 0.0, 0.0)",0,1700075613,746156692,IMU1_Frame,-2.4129999999999998e-05,-2.4400000000000004e-06,3.1650000000000004e-05,"(0.0, 0.0, 0.0, 0.0, 0.0, 0.0, 0.0, 0.0, 0.0)","$VNYMR,+175.230,+003.576,-000.364,-00.2413,-00.0244,+00.3165,+00.586,+00.095,-09.599,-00.000476,+00.000362,+00.000915*6F
"
1700075613.8027077,0,1700075613,771250247,IMU1_Frame,0,1700075613,771250247,IMU1_Frame,-0.031298368964175816,-0.0018915785453326565,0.9986466219028833,0.04149407900832005,"(0.0, 0.0, 0.0, 0.0, 0.0, 0.0, 0.0, 0.0, 0.0)",7.8e-05,7.5e-05,0.00025,"(0.0, 0.0, 0.0, 0.0, 0.0, 0.0, 0.0, 0.0, 0.0)",0.612,0.082,-9.657,"(0.0, 0.0, 0.0, 0.0, 0.0, 0.0, 0.0, 0.0, 0.0)",0,1700075613,771250247,IMU1_Frame,-2.4e-05,-2.0500000000000003e-06,3.1440000000000004e-05,"(0.0, 0.0, 0.0, 0.0, 0.0, 0.0, 0.0, 0.0, 0.0)","$VNYMR,+175.230,+003.575,-000.366,-00.2400,-00.0205,+00.3144,+00.612,+00.082,-09.657,+00.000078,+00.000075,+00.000250*60
"
1700075613.8037887,0,1700075613,796131372,IMU1_Frame,0,1700075613,796131372,IMU1_Frame,-0.03129835245584723,-0.0018918516750550873,0.9986469839690071,0.04148536417093225,"(0.0, 0.0, 0.0, 0.0, 0.0, 0.0, 0.0, 0.0, 0.0)",0.000808,0.0001,-0.00045,"(0.0, 0.0, 0.0, 0.0, 0.0, 0.0, 0.0, 0.0, 0.0)",0.619,0.056,-9.643,"(0.0, 0.0, 0.0, 0.0, 0.0, 0.0, 0.0, 0.0, 0.0)",0,1700075613,796131372,IMU1_Frame,-2.4129999999999998e-05,-2.4400000000000004e-06,3.1440000000000004e-05,"(0.0, 0.0, 0.0, 0.0, 0.0, 0.0, 0.0, 0.0, 0.0)","$VNYMR,+175.231,+003.575,-000.366,-00.2413,-00.0244,+00.3144,+00.619,+00.056,-09.643,+00.000808,+00.000100,-00.000450*6D
"
1700075613.8465652,0,1700075613,821311235,IMU1_Frame,0,1700075613,821311235,IMU1_Frame,-0.031315419955718106,-0.0018824093096029084,0.9986464586590655,0.04148555912478207,"(0.0, 0.0, 0.0, 0.0, 0.0, 0.0, 0.0, 0.0, 0.0)",-0.000545,0.001416,0.00056,"(0.0, 0.0, 0.0, 0.0, 0.0, 0.0, 0.0, 0.0, 0.0)",0.625,0.068,-9.668,"(0.0, 0.0, 0.0, 0.0, 0.0, 0.0, 0.0, 0.0, 0.0)",0,1700075613,821311235,IMU1_Frame,-2.393e-05,-1.72e-06,3.129e-05,"(0.0, 0.0, 0.0, 0.0, 0.0, 0.0, 0.0, 0.0, 0.0)","$VNYMR,+175.231,+003.577,-000.365,-00.2393,-00.0172,+00.3129,+00.625,+00.068,-09.668,-00.000545,+00.001416,+00.000560*60
"
1700075613.890648,0,1700075613,846085309,IMU1_Frame,0,1700075613,846085309,IMU1_Frame,-0.03132411829158313,-0.0018823189007529885,0.9986465496457029,0.04147680519933448,"(0.0, 0.0, 0.0, 0.0, 0.0, 0.0, 0.0, 0.0, 0.0)",-0.000505,-0.000274,0.000627,"(0.0, 0.0, 0.0, 0.0, 0.0, 0.0, 0.0, 0.0, 0.0)",0.612,0.06,-9.645,"(0.0, 0.0, 0.0, 0.0, 0.0, 0.0, 0.0, 0.0, 0.0)",0,1700075613,846085309,IMU1_Frame,-2.4e-05,-1.98e-06,3.1440000000000004e-05,"(0.0, 0.0, 0.0, 0.0, 0.0, 0.0, 0.0, 0.0, 0.0)","$VNYMR,+175.232,+003.578,-000.365,-00.2400,-00.0198,+00.3144,+00.612,+00.060,-09.645,-00.000505,-00.000274,+00.000627*6C
"
1700075613.8906682,0,1700075613,871154069,IMU1_Frame,0,1700075613,871154069,IMU1_Frame,-0.03134116951373741,-0.0018731501984355517,0.9986463857063204,0.041468285683743465,"(0.0, 0.0, 0.0, 0.0, 0.0, 0.0, 0.0, 0.0, 0.0)",-0.000344,0.000339,0.00064,"(0.0, 0.0, 0.0, 0.0, 0.0, 0.0, 0.0, 0.0, 0.0)",0.623,0.052,-9.607,"(0.0, 0.0, 0.0, 0.0, 0.0, 0.0, 0.0, 0.0, 0.0)",0,1700075613,871154069,IMU1_Frame,-2.414e-05,-2.64e-06,3.158e-05,"(0.0, 0.0, 0.0, 0.0, 0.0, 0.0, 0.0, 0.0, 0.0)","$VNYMR,+175.233,+003.580,-000.364,-00.2414,-00.0264,+00.3158,+00.623,+00.052,-09.607,-00.000344,+00.000339,+00.000640*6A
"
1700075613.9346094,0,1700075613,897010803,IMU1_Frame,0,1700075613,897010803,IMU1_Frame,-0.031349522394357524,-0.0018640717576014346,0.9986461307746364,0.04146852024097203,"(0.0, 0.0, 0.0, 0.0, 0.0, 0.0, 0.0, 0.0, 0.0)",-0.000145,-0.001015,0.000787,"(0.0, 0.0, 0.0, 0.0, 0.0, 0.0, 0.0, 0.0, 0.0)",0.624,0.043,-9.655,"(0.0, 0.0, 0.0, 0.0, 0.0, 0.0, 0.0, 0.0, 0.0)",0,1700075613,897010803,IMU1_Frame,-2.4129999999999998e-05,-2.5e-06,3.1650000000000004e-05,"(0.0, 0.0, 0.0, 0.0, 0.0, 0.0, 0.0, 0.0, 0.0)","$VNYMR,+175.233,+003.581,-000.363,-00.2413,-00.0250,+00.3165,+00.624,+00.043,-09.655,-00.000145,-00.001015,+00.000787*61
"
1700075613.9346318,0,1700075613,921307086,IMU1_Frame,0,1700075613,921307086,IMU1_Frame,-0.03135785908181803,-0.0018552669702324182,0.9986462375296333,0.041460040113110753,"(0.0, 0.0, 0.0, 0.0, 0.0, 0.0, 0.0, 0.0, 0.0)",-9.2e-05,-0.000376,0.000734,"(0.0, 0.0, 0.0, 0.0, 0.0, 0.0, 0.0, 0.0, 0.0)",0.594,0.059,-9.646,"(0.0, 0.0, 0.0, 0.0, 0.0, 0.0, 0.0, 0.0, 0.0)",0,1700075613,921307086,IMU1_Frame,-2.406e-05,-2.11e-06,3.136e-05,"(0.0, 0.0, 0.0, 0.0, 0.0, 0.0, 0.0, 0.0, 0.0)","$VNYMR,+175.234,+003.582,-000.362,-00.2406,-00.0211,+00.3136,+00.594,+00.059,-09.646,-00.000092,-00.000376,+00.000734*66
"
1700075613.9785185,0,1700075613,946054935,IMU1_Frame,0,1700075613,946054935,IMU1_Frame,-0.03135785908181803,-0.0018552669702324182,0.9986462375296333,0.041460040113110753,"(0.0, 0.0, 0.0, 0.0, 0.0, 0.0, 0.0, 0.0, 0.0)",-0.000603,-0.002169,-0.001089,"(0.0, 0.0, 0.0, 0.0, 0.0, 0.0, 0.0, 0.0, 0.0)",0.605,0.059,-9.643,"(0.0, 0.0, 0.0, 0.0, 0.0, 0.0, 0.0, 0.0, 0.0)",0,1700075613,946054935,IMU1_Frame,-2.414e-05,-2.57e-06,3.1219999999999996e-05,"(0.0, 0.0, 0.0, 0.0, 0.0, 0.0, 0.0, 0.0, 0.0)","$VNYMR,+175.234,+003.582,-000.362,-00.2414,-00.0257,+00.3122,+00.605,+00.059,-09.643,-00.000603,-00.002169,-00.001089*6A
"
1700075613.9785743,0,1700075613,971019983,IMU1_Frame,0,1700075613,971019983,IMU1_Frame,-0.031366935646998946,-0.001863618271366113,0.9986459499089296,0.04145972751414858,"(0.0, 0.0, 0.0, 0.0, 0.0, 0.0, 0.0, 0.0, 0.0)",0.000199,0.000174,-0.000247,"(0.0, 0.0, 0.0, 0.0, 0.0, 0.0, 0.0, 0.0, 0.0)",0.583,0.078,-9.688,"(0.0, 0.0, 0.0, 0.0, 0.0, 0.0, 0.0, 0.0, 0.0)",0,1700075613,971019983,IMU1_Frame,-2.4069999999999998e-05,-2.51e-06,3.1440000000000004e-05,"(0.0, 0.0, 0.0, 0.0, 0.0, 0.0, 0.0, 0.0, 0.0)","$VNYMR,+175.234,+003.583,-000.363,-00.2407,-00.0251,+00.3144,+00.583,+00.078,-09.688,+00.000199,+00.000174,-00.000247*6C
"
1700075614.0226402,0,1700075613,996015310,IMU1_Frame,0,1700075613,996015310,IMU1_Frame,-0.03133243840013184,-0.0018737872348536771,0.9986470187084484,0.041459609863436095,"(0.0, 0.0, 0.0, 0.0, 0.0, 0.0, 0.0, 0.0, 0.0)",-1.4e-05,-0.001026,0.00037,"(0.0, 0.0, 0.0, 0.0, 0.0, 0.0, 0.0, 0.0, 0.0)",0.576,0.071,-9.651,"(0.0, 0.0, 0.0, 0.0, 0.0, 0.0, 0.0, 0.0, 0.0)",0,1700075613,996015310,IMU1_Frame,-2.4069999999999998e-05,-2.38e-06,3.137e-05,"(0.0, 0.0, 0.0, 0.0, 0.0, 0.0, 0.0, 0.0, 0.0)","$VNYMR,+175.234,+003.579,-000.364,-00.2407,-00.0238,+00.3137,+00.576,+00.071,-09.651,-00.000014,-00.001026,+00.000370*62
"
1700075614.025397,0,1700075614,21930932,IMU1_Frame,0,1700075614,21930932,IMU1_Frame,-0.03132406900185494,-0.0018831389636070508,0.9986476351636929,0.04145066067959082,"(0.0, 0.0, 0.0, 0.0, 0.0, 0.0, 0.0, 0.0, 0.0)",-0.000466,0.000319,-0.000329,"(0.0, 0.0, 0.0, 0.0, 0.0, 0.0, 0.0, 0.0, 0.0)",0.582,0.08,-9.658,"(0.0, 0.0, 0.0, 0.0, 0.0, 0.0, 0.0, 0.0, 0.0)",0,1700075614,21930932,IMU1_Frame,-2.4069999999999998e-05,-2.24e-06,3.1440000000000004e-05,"(0.0, 0.0, 0.0, 0.0, 0.0, 0.0, 0.0, 0.0, 0.0)","$VNYMR,+175.235,+003.578,-000.365,-00.2407,-00.0224,+00.3144,+00.582,+00.080,-09.658,-00.000466,+00.000319,-00.000329*65
"
1700075614.0707364,0,1700075614,46065807,IMU1_Frame,0,1700075614,46065807,IMU1_Frame,-0.03131571595256068,-0.0018922172697691884,0.9986478896951673,0.0414504264823832,"(0.0, 0.0, 0.0, 0.0, 0.0, 0.0, 0.0, 0.0, 0.0)",0.000172,0.001124,-0.000152,"(0.0, 0.0, 0.0, 0.0, 0.0, 0.0, 0.0, 0.0, 0.0)",0.59,0.055,-9.652,"(0.0, 0.0, 0.0, 0.0, 0.0, 0.0, 0.0, 0.0, 0.0)",0,1700075614,46065807,IMU1_Frame,-2.399e-05,-1.65e-06,3.129e-05,"(0.0, 0.0, 0.0, 0.0, 0.0, 0.0, 0.0, 0.0, 0.0)","$VNYMR,+175.235,+003.577,-000.366,-00.2399,-00.0165,+00.3129,+00.590,+00.055,-09.652,+00.000172,+00.001124,-00.000152*60
"
1700075614.118603,0,1700075614,70944786,IMU1_Frame,0,1700075614,70944786,IMU1_Frame,-0.031297924673613475,-0.0018842293408323954,0.9986484479540173,0.04145077791728954,"(0.0, 0.0, 0.0, 0.0, 0.0, 0.0, 0.0, 0.0, 0.0)",0.000691,0.000135,0.000721,"(0.0, 0.0, 0.0, 0.0, 0.0, 0.0, 0.0, 0.0, 0.0)",0.606,0.067,-9.658,"(0.0, 0.0, 0.0, 0.0, 0.0, 0.0, 0.0, 0.0, 0.0)",0,1700075614,70944786,IMU1_Frame,-2.4010000000000002e-05,-2.57e-06,3.1519999999999996e-05,"(0.0, 0.0, 0.0, 0.0, 0.0, 0.0, 0.0, 0.0, 0.0)","$VNYMR,+175.235,+003.575,-000.365,-00.2401,-00.0257,+00.3152,+00.606,+00.067,-09.658,+00.000691,+00.000135,+00.000721*61
"
1700075614.1186395,0,1700075614,95959901,IMU1_Frame,0,1700075614,95959901,IMU1_Frame,-0.03129753020747576,-0.0018760607342529622,0.9986491876642105,0.04143362133154325,"(0.0, 0.0, 0.0, 0.0, 0.0, 0.0, 0.0, 0.0, 0.0)",-0.00033,0.00016,0.00173,"(0.0, 0.0, 0.0, 0.0, 0.0, 0.0, 0.0, 0.0, 0.0)",0.619,0.058,-9.632,"(0.0, 0.0, 0.0, 0.0, 0.0, 0.0, 0.0, 0.0, 0.0)",0,1700075614,95959901,IMU1_Frame,-2.4069999999999998e-05,-2.57e-06,3.151e-05,"(0.0, 0.0, 0.0, 0.0, 0.0, 0.0, 0.0, 0.0, 0.0)","$VNYMR,+175.237,+003.575,-000.364,-00.2407,-00.0257,+00.3151,+00.619,+00.058,-09.632,-00.000330,+00.000160,+00.001730*60
"
1700075614.1628304,0,1700075614,121877193,IMU1_Frame,0,1700075614,121877193,IMU1_Frame,-0.031296790828788536,-0.001858904133664416,0.9986495817988422,0.04142545271012174,"(0.0, 0.0, 0.0, 0.0, 0.0, 0.0, 0.0, 0.0, 0.0)",0.001007,-0.000845,0.001309,"(0.0, 0.0, 0.0, 0.0, 0.0, 0.0, 0.0, 0.0, 0.0)",0.598,0.054,-9.644,"(0.0, 0.0, 0.0, 0.0, 0.0, 0.0, 0.0, 0.0, 0.0)",0,1700075614,121877193,IMU1_Frame,-2.4069999999999998e-05,-2.57e-06,3.151e-05,"(0.0, 0.0, 0.0, 0.0, 0.0, 0.0, 0.0, 0.0, 0.0)","$VNYMR,+175.238,+003.575,-000.362,-00.2407,-00.0257,+00.3151,+00.598,+00.054,-09.644,+00.001007,-00.000845,+00.001309*68
"
1700075614.162867,0,1700075614,146868467,IMU1_Frame,0,1700075614,146868467,IMU1_Frame,-0.03130548939776446,-0.0018588141019790815,0.9986496724011604,0.04141669900843767,"(0.0, 0.0, 0.0, 0.0, 0.0, 0.0, 0.0, 0.0, 0.0)",-0.000249,0.000869,0.000452,"(0.0, 0.0, 0.0, 0.0, 0.0, 0.0, 0.0, 0.0, 0.0)",0.626,0.055,-9.667,"(0.0, 0.0, 0.0, 0.0, 0.0, 0.0, 0.0, 0.0, 0.0)",0,1700075614,146868467,IMU1_Frame,-2.42e-05,-2.57e-06,3.136e-05,"(0.0, 0.0, 0.0, 0.0, 0.0, 0.0, 0.0, 0.0, 0.0)","$VNYMR,+175.239,+003.576,-000.362,-00.2420,-00.0257,+00.3136,+00.626,+00.055,-09.667,-00.000249,+00.000869,+00.000452*67
"
1700075614.2066233,0,1700075614,171818256,IMU1_Frame,0,1700075614,171818256,IMU1_Frame,-0.031331649970469715,-0.0018574512380630135,0.9986484978841776,0.04142529732786274,"(0.0, 0.0, 0.0, 0.0, 0.0, 0.0, 0.0, 0.0, 0.0)",-0.00064,-0.000132,0.000686,"(0.0, 0.0, 0.0, 0.0, 0.0, 0.0, 0.0, 0.0, 0.0)",0.61,0.057,-9.642,"(0.0, 0.0, 0.0, 0.0, 0.0, 0.0, 0.0, 0.0, 0.0)",0,1700075614,171818256,IMU1_Frame,-2.427e-05,-2.76e-06,3.143e-05,"(0.0, 0.0, 0.0, 0.0, 0.0, 0.0, 0.0, 0.0, 0.0)","$VNYMR,+175.238,+003.579,-000.362,-00.2427,-00.0276,+00.3143,+00.610,+00.057,-09.642,-00.000640,-00.000132,+00.000686*68
"
1700075614.2066548,0,1700075614,196828365,IMU1_Frame,0,1700075614,196828365,IMU1_Frame,-0.03133163375995679,-0.0018577246582183126,0.9986488593500679,0.04141658247410653,"(0.0, 0.0, 0.0, 0.0, 0.0, 0.0, 0.0, 0.0, 0.0)",-0.000358,-0.000781,0.001171,"(0.0, 0.0, 0.0, 0.0, 0.0, 0.0, 0.0, 0.0, 0.0)",0.611,0.059,-9.659,"(0.0, 0.0, 0.0, 0.0, 0.0, 0.0, 0.0, 0.0, 0.0)",0,1700075614,196828365,IMU1_Frame,-2.419e-05,-2.17e-06,3.136e-05,"(0.0, 0.0, 0.0, 0.0, 0.0, 0.0, 0.0, 0.0, 0.0)","$VNYMR,+175.239,+003.579,-000.362,-00.2419,-00.0217,+00.3136,+00.611,+00.059,-09.659,-00.000358,-00.000781,+00.001171*68
"
1700075614.2506285,0,1700075614,221968889,IMU1_Frame,0,1700075614,221968889,IMU1_Frame,-0.03134942474881533,-0.0018657132121995786,0.9986483006923552,0.04141623119501895,"(0.0, 0.0, 0.0, 0.0, 0.0, 0.0, 0.0, 0.0, 0.0)",0.00056,0.000526,0.000156,"(0.0, 0.0, 0.0, 0.0, 0.0, 0.0, 0.0, 0.0, 0.0)",0.619,0.061,-9.629,"(0.0, 0.0, 0.0, 0.0, 0.0, 0.0, 0.0, 0.0, 0.0)",0,1700075614,221968889,IMU1_Frame,-2.4069999999999998e-05,-2.4400000000000004e-06,3.166e-05,"(0.0, 0.0, 0.0, 0.0, 0.0, 0.0, 0.0, 0.0, 0.0)","$VNYMR,+175.239,+003.581,-000.363,-00.2407,-00.0244,+00.3166,+00.619,+00.061,-09.629,+00.000560,+00.000526,+00.000156*60
"
1700075614.2538233,0,1700075614,246861457,IMU1_Frame,0,1700075614,246861457,IMU1_Frame,-0.03135812324688392,-0.0018656237126657518,0.9986483907607213,0.04140747741190735,"(0.0, 0.0, 0.0, 0.0, 0.0, 0.0, 0.0, 0.0, 0.0)",0.000665,-0.000394,0.000963,"(0.0, 0.0, 0.0, 0.0, 0.0, 0.0, 0.0, 0.0, 0.0)",0.593,0.08,-9.629,"(0.0, 0.0, 0.0, 0.0, 0.0, 0.0, 0.0, 0.0, 0.0)",0,1700075614,246861457,IMU1_Frame,-2.4010000000000002e-05,-2.38e-06,3.137e-05,"(0.0, 0.0, 0.0, 0.0, 0.0, 0.0, 0.0, 0.0, 0.0)","$VNYMR,+175.240,+003.582,-000.363,-00.2401,-00.0238,+00.3137,+00.593,+00.080,-09.629,+00.000665,-00.000394,+00.000963*6B
"
1700075614.2986186,0,1700075614,271867990,IMU1_Frame,0,1700075614,271867990,IMU1_Frame,-0.031358845938923546,-0.001883053414869234,0.998648358047342,0.04140693010310276,"(0.0, 0.0, 0.0, 0.0, 0.0, 0.0, 0.0, 0.0, 0.0)",-0.000425,-0.000255,0.000143,"(0.0, 0.0, 0.0, 0.0, 0.0, 0.0, 0.0, 0.0, 0.0)",0.602,0.063,-9.66,"(0.0, 0.0, 0.0, 0.0, 0.0, 0.0, 0.0, 0.0, 0.0)",0,1700075614,271867990,IMU1_Frame,-2.395e-05,-2.71e-06,3.116e-05,"(0.0, 0.0, 0.0, 0.0, 0.0, 0.0, 0.0, 0.0, 0.0)","$VNYMR,+175.240,+003.582,-000.365,-00.2395,-00.0271,+00.3116,+00.602,+00.063,-09.660,-00.000425,-00.000255,+00.000143*64
"
1700075614.3426263,0,1700075614,296721458,IMU1_Frame,0,1700075614,296721458,IMU1_Frame,-0.031341416376534696,-0.0018837795738025358,0.9986489005954314,0.041407008266305334,"(0.0, 0.0, 0.0, 0.0, 0.0, 0.0, 0.0, 0.0, 0.0)",0.000175,0.001926,0.001921,"(0.0, 0.0, 0.0, 0.0, 0.0, 0.0, 0.0, 0.0, 0.0)",0.598,0.053,-9.655,"(0.0, 0.0, 0.0, 0.0, 0.0, 0.0, 0.0, 0.0, 0.0)",0,1700075614,296721458,IMU1_Frame,-2.4e-05,-2.18e-06,3.151e-05,"(0.0, 0.0, 0.0, 0.0, 0.0, 0.0, 0.0, 0.0, 0.0)","$VNYMR,+175.240,+003.580,-000.365,-00.2400,-00.0218,+00.3151,+00.598,+00.053,-09.655,+00.000175,+00.001926,+00.001921*67
"
1700075614.34264,0,1700075614,321751356,IMU1_Frame,0,1700075614,321751356,IMU1_Frame,-0.031331962606341385,-0.001866986359673865,0.9986495657991903,0.04139887933575425,"(0.0, 0.0, 0.0, 0.0, 0.0, 0.0, 0.0, 0.0, 0.0)",0.00122,0.001376,0.001403,"(0.0, 0.0, 0.0, 0.0, 0.0, 0.0, 0.0, 0.0, 0.0)",0.575,0.03,-9.658,"(0.0, 0.0, 0.0, 0.0, 0.0, 0.0, 0.0, 0.0, 0.0)",0,1700075614,321751356,IMU1_Frame,-2.4069999999999998e-05,-2.51e-06,3.151e-05,"(0.0, 0.0, 0.0, 0.0, 0.0, 0.0, 0.0, 0.0, 0.0)","$VNYMR,+175.241,+003.579,-000.363,-00.2407,-00.0251,+00.3151,+00.575,+00.030,-09.658,+00.001220,+00.001376,+00.001403*67
"
1700075614.386544,0,1700075614,346791267,IMU1_Frame,0,1700075614,346791267,IMU1_Frame,-0.03130581822615648,-0.0018680753542244532,0.9986503788428134,0.041398996084047714,"(0.0, 0.0, 0.0, 0.0, 0.0, 0.0, 0.0, 0.0, 0.0)",-0.000184,-0.000537,-0.000301,"(0.0, 0.0, 0.0, 0.0, 0.0, 0.0, 0.0, 0.0, 0.0)",0.606,0.039,-9.655,"(0.0, 0.0, 0.0, 0.0, 0.0, 0.0, 0.0, 0.0, 0.0)",0,1700075614,346791267,IMU1_Frame,-2.4129999999999998e-05,-2.4400000000000004e-06,3.1440000000000004e-05,"(0.0, 0.0, 0.0, 0.0, 0.0, 0.0, 0.0, 0.0, 0.0)","$VNYMR,+175.241,+003.576,-000.363,-00.2413,-00.0244,+00.3144,+00.606,+00.039,-09.655,-00.000184,-00.000537,-00.000301*62
"
1700075614.3865712,0,1700075614,371733427,IMU1_Frame,0,1700075614,371733427,IMU1_Frame,-0.031305095672599675,-0.0018506456167537186,0.9986504112947758,0.041399542467345334,"(0.0, 0.0, 0.0, 0.0, 0.0, 0.0, 0.0, 0.0, 0.0)",0.000184,0.001424,0.001205,"(0.0, 0.0, 0.0, 0.0, 0.0, 0.0, 0.0, 0.0, 0.0)",0.591,0.014,-9.648,"(0.0, 0.0, 0.0, 0.0, 0.0, 0.0, 0.0, 0.0, 0.0)",0,1700075614,371733427,IMU1_Frame,-2.406e-05,-2.11e-06,3.151e-05,"(0.0, 0.0, 0.0, 0.0, 0.0, 0.0, 0.0, 0.0, 0.0)","$VNYMR,+175.241,+003.576,-000.361,-00.2406,-00.0211,+00.3151,+00.591,+00.014,-09.648,+00.000184,+00.001424,+00.001205*6E
"
1700075614.4306548,0,1700075614,396728277,IMU1_Frame,0,1700075614,396728277,IMU1_Frame,-0.031305095672599675,-0.0018506456167537186,0.9986504112947758,0.041399542467345334,"(0.0, 0.0, 0.0, 0.0, 0.0, 0.0, 0.0, 0.0, 0.0)",-0.000218,0.001375,-0.000697,"(0.0, 0.0, 0.0, 0.0, 0.0, 0.0, 0.0, 0.0, 0.0)",0.587,0.061,-9.616,"(0.0, 0.0, 0.0, 0.0, 0.0, 0.0, 0.0, 0.0, 0.0)",0,1700075614,396728277,IMU1_Frame,-2.4129999999999998e-05,-2.31e-06,3.143e-05,"(0.0, 0.0, 0.0, 0.0, 0.0, 0.0, 0.0, 0.0, 0.0)","$VNYMR,+175.241,+003.576,-000.361,-00.2413,-00.0231,+00.3143,+00.587,+00.061,-09.616,-00.000218,+00.001375,-00.000697*6E
"
1700075614.4306636,0,1700075614,421885490,IMU1_Frame,0,1700075614,421885490,IMU1_Frame,-0.03131453302193641,-0.0018677123561831493,0.9986501079043238,0.041398957171102604,"(0.0, 0.0, 0.0, 0.0, 0.0, 0.0, 0.0, 0.0, 0.0)",-0.000606,0.001559,-0.000368,"(0.0, 0.0, 0.0, 0.0, 0.0, 0.0, 0.0, 0.0, 0.0)",0.613,0.082,-9.623,"(0.0, 0.0, 0.0, 0.0, 0.0, 0.0, 0.0, 0.0, 0.0)",0,1700075614,421885490,IMU1_Frame,-2.419e-05,-2.31e-06,3.143e-05,"(0.0, 0.0, 0.0, 0.0, 0.0, 0.0, 0.0, 0.0, 0.0)","$VNYMR,+175.241,+003.577,-000.363,-00.2419,-00.0231,+00.3143,+00.613,+00.082,-09.623,-00.000606,+00.001559,-00.000368*64
"
1700075614.4746943,0,1700075614,446918964,IMU1_Frame,0,1700075614,446918964,IMU1_Frame,-0.03132397035799107,-0.0018847790854425437,0.9986498041462852,0.04139837155489259,"(0.0, 0.0, 0.0, 0.0, 0.0, 0.0, 0.0, 0.0, 0.0)",-0.000486,-0.000311,-7.2e-05,"(0.0, 0.0, 0.0, 0.0, 0.0, 0.0, 0.0, 0.0, 0.0)",0.623,0.07,-9.654,"(0.0, 0.0, 0.0, 0.0, 0.0, 0.0, 0.0, 0.0, 0.0)",0,1700075614,446918964,IMU1_Frame,-2.426e-05,-2.5e-06,3.136e-05,"(0.0, 0.0, 0.0, 0.0, 0.0, 0.0, 0.0, 0.0, 0.0)","$VNYMR,+175.241,+003.578,-000.365,-00.2426,-00.0250,+00.3136,+00.623,+00.070,-09.654,-00.000486,-00.000311,-00.000072*65
"
1700075614.4764032,0,1700075614,471904277,IMU1_Frame,0,1700075614,471904277,IMU1_Frame,-0.03134246705949706,-0.001910471169771051,0.9986495734581697,0.04138875801892756,"(0.0, 0.0, 0.0, 0.0, 0.0, 0.0, 0.0, 0.0, 0.0)",-0.000739,-0.000977,0.000106,"(0.0, 0.0, 0.0, 0.0, 0.0, 0.0, 0.0, 0.0, 0.0)",0.64,0.091,-9.633,"(0.0, 0.0, 0.0, 0.0, 0.0, 0.0, 0.0, 0.0, 0.0)",0,1700075614,471904277,IMU1_Frame,-2.414e-05,-2.57e-06,3.166e-05,"(0.0, 0.0, 0.0, 0.0, 0.0, 0.0, 0.0, 0.0, 0.0)","$VNYMR,+175.242,+003.580,-000.368,-00.2414,-00.0257,+00.3166,+00.640,+00.091,-09.633,-00.000739,-00.000977,+00.000106*6D
"
1700075614.5225813,0,1700075614,496684789,IMU1_Frame,0,1700075614,496684789,IMU1_Frame,-0.03136024107275809,-0.0019187338273989182,0.9986493753679722,0.0413796908823275,"(0.0, 0.0, 0.0, 0.0, 0.0, 0.0, 0.0, 0.0, 0.0)",0.001123,0.000136,0.000917,"(0.0, 0.0, 0.0, 0.0, 0.0, 0.0, 0.0, 0.0, 0.0)",0.633,0.075,-9.677,"(0.0, 0.0, 0.0, 0.0, 0.0, 0.0, 0.0, 0.0, 0.0)",0,1700075614,496684789,IMU1_Frame,-2.42e-05,-2.4400000000000004e-06,3.099e-05,"(0.0, 0.0, 0.0, 0.0, 0.0, 0.0, 0.0, 0.0, 0.0)","$VNYMR,+175.243,+003.582,-000.369,-00.2420,-00.0244,+00.3099,+00.633,+00.075,-09.677,+00.001123,+00.000136,+00.000917*6C
"
1700075614.5666988,0,1700075614,521684646,IMU1_Frame,0,1700075614,521684646,IMU1_Frame,-0.031360224327452606,-0.0019190074970563205,0.9986497364358712,0.041370976020915544,"(0.0, 0.0, 0.0, 0.0, 0.0, 0.0, 0.0, 0.0, 0.0)",0.000665,0.000214,0.001106,"(0.0, 0.0, 0.0, 0.0, 0.0, 0.0, 0.0, 0.0, 0.0)",0.619,0.066,-9.665,"(0.0, 0.0, 0.0, 0.0, 0.0, 0.0, 0.0, 0.0, 0.0)",0,1700075614,521684646,IMU1_Frame,-2.4069999999999998e-05,-2.4400000000000004e-06,3.158e-05,"(0.0, 0.0, 0.0, 0.0, 0.0, 0.0, 0.0, 0.0, 0.0)","$VNYMR,+175.244,+003.582,-000.369,-00.2407,-00.0244,+00.3158,+00.619,+00.066,-09.665,+00.000665,+00.000214,+00.001106*65
"
1700075614.5667524,0,1700075614,546716451,IMU1_Frame,0,1700075614,546716451,IMU1_Frame,-0.031368922371836264,-0.001918918457666994,0.9986498260505521,0.04136222177765966,"(0.0, 0.0, 0.0, 0.0, 0.0, 0.0, 0.0, 0.0, 0.0)",6.9e-05,-0.001109,0.000727,"(0.0, 0.0, 0.0, 0.0, 0.0, 0.0, 0.0, 0.0, 0.0)",0.605,0.063,-9.628,"(0.0, 0.0, 0.0, 0.0, 0.0, 0.0, 0.0, 0.0, 0.0)",0,1700075614,546716451,IMU1_Frame,-2.42e-05,-2.57e-06,3.151e-05,"(0.0, 0.0, 0.0, 0.0, 0.0, 0.0, 0.0, 0.0, 0.0)","$VNYMR,+175.245,+003.583,-000.369,-00.2420,-00.0257,+00.3151,+00.605,+00.063,-09.628,+00.000069,-00.001109,+00.000727*6C
"
1700075614.6106842,0,1700075614,571596145,IMU1_Frame,0,1700075614,571596145,IMU1_Frame,-0.03136856141716385,-0.001910203593824512,0.998649842758249,0.0413624955215738,"(0.0, 0.0, 0.0, 0.0, 0.0, 0.0, 0.0, 0.0, 0.0)",0.001699,0.000975,-0.00042,"(0.0, 0.0, 0.0, 0.0, 0.0, 0.0, 0.0, 0.0, 0.0)",0.582,0.047,-9.666,"(0.0, 0.0, 0.0, 0.0, 0.0, 0.0, 0.0, 0.0, 0.0)",0,1700075614,571596145,IMU1_Frame,-2.4069999999999998e-05,-2.57e-06,3.151e-05,"(0.0, 0.0, 0.0, 0.0, 0.0, 0.0, 0.0, 0.0, 0.0)","$VNYMR,+175.245,+003.583,-000.368,-00.2407,-00.0257,+00.3151,+00.582,+00.047,-09.666,+00.001699,+00.000975,-00.000420*66
"
1700075614.6107569,0,1700075614,596625566,IMU1_Frame,0,1700075614,596625566,IMU1_Frame,-0.031368544746298375,-0.0019104773360909479,0.9986502036760901,0.04135378065608353,"(0.0, 0.0, 0.0, 0.0, 0.0, 0.0, 0.0, 0.0, 0.0)",-0.000277,-6.3e-05,0.001461,"(0.0, 0.0, 0.0, 0.0, 0.0, 0.0, 0.0, 0.0, 0.0)",0.609,0.07,-9.68,"(0.0, 0.0, 0.0, 0.0, 0.0, 0.0, 0.0, 0.0, 0.0)",0,1700075614,596625566,IMU1_Frame,-2.42e-05,-2.4400000000000004e-06,3.15e-05,"(0.0, 0.0, 0.0, 0.0, 0.0, 0.0, 0.0, 0.0, 0.0)","$VNYMR,+175.246,+003.583,-000.368,-00.2420,-00.0244,+00.3150,+00.609,+00.070,-09.680,-00.000277,-00.000063,+00.001461*66
"
1700075614.6545467,0,1700075614,621756315,IMU1_Frame,0,1700075614,621756315,IMU1_Frame,-0.03136818386528866,-0.0019017624689533828,0.9986502203101243,0.04135405439670259,"(0.0, 0.0, 0.0, 0.0, 0.0, 0.0, 0.0, 0.0, 0.0)",0.000543,-0.001533,0.000251,"(0.0, 0.0, 0.0, 0.0, 0.0, 0.0, 0.0, 0.0, 0.0)",0.57,0.061,-9.674,"(0.0, 0.0, 0.0, 0.0, 0.0, 0.0, 0.0, 0.0, 0.0)",0,1700075614,621756315,IMU1_Frame,-2.426e-05,-2.4400000000000004e-06,3.1140000000000003e-05,"(0.0, 0.0, 0.0, 0.0, 0.0, 0.0, 0.0, 0.0, 0.0)","$VNYMR,+175.246,+003.583,-000.367,-00.2426,-00.0244,+00.3114,+00.570,+00.061,-09.674,+00.000543,-00.001533,+00.000251*6A
"
1700075614.6547632,0,1700075614,646611928,IMU1_Frame,0,1700075614,646611928,IMU1_Frame,-0.03135910818561997,-0.0018934102274158853,0.9986505082551104,0.04135436728234465,"(0.0, 0.0, 0.0, 0.0, 0.0, 0.0, 0.0, 0.0, 0.0)",-6.5e-05,0.001364,0.000345,"(0.0, 0.0, 0.0, 0.0, 0.0, 0.0, 0.0, 0.0, 0.0)",0.57,0.057,-9.676,"(0.0, 0.0, 0.0, 0.0, 0.0, 0.0, 0.0, 0.0, 0.0)",0,1700075614,646611928,IMU1_Frame,-2.4069999999999998e-05,-2.24e-06,3.1440000000000004e-05,"(0.0, 0.0, 0.0, 0.0, 0.0, 0.0, 0.0, 0.0, 0.0)","$VNYMR,+175.246,+003.582,-000.366,-00.2407,-00.0224,+00.3144,+00.570,+00.057,-09.676,-00.000065,+00.001364,+00.000345*6C
"
1700075614.6986082,0,1700075614,671686172,IMU1_Frame,0,1700075614,671686172,IMU1_Frame,-0.03134130124451272,-0.0018856941084646535,0.9986514281423658,0.04134600419923304,"(0.0, 0.0, 0.0, 0.0, 0.0, 0.0, 0.0, 0.0, 0.0)",-0.000931,0.000186,-0.000287,"(0.0, 0.0, 0.0, 0.0, 0.0, 0.0, 0.0, 0.0, 0.0)",0.573,0.041,-9.617,"(0.0, 0.0, 0.0, 0.0, 0.0, 0.0, 0.0, 0.0, 0.0)",0,1700075614,671686172,IMU1_Frame,-2.402e-05,-2.7699999999999997e-06,3.108e-05,"(0.0, 0.0, 0.0, 0.0, 0.0, 0.0, 0.0, 0.0, 0.0)","$VNYMR,+175.247,+003.580,-000.365,-00.2402,-00.0277,+00.3108,+00.573,+00.041,-09.617,-00.000931,+00.000186,-00.000287*6A
"
1700075614.742702,0,1700075614,696663618,IMU1_Frame,0,1700075614,696663618,IMU1_Frame,-0.03133222562408796,-0.0018773417751710892,0.9986517157256435,0.04134631668636396,"(0.0, 0.0, 0.0, 0.0, 0.0, 0.0, 0.0, 0.0, 0.0)",-0.000252,-0.00132,-0.000182,"(0.0, 0.0, 0.0, 0.0, 0.0, 0.0, 0.0, 0.0, 0.0)",0.606,0.042,-9.624,"(0.0, 0.0, 0.0, 0.0, 0.0, 0.0, 0.0, 0.0, 0.0)",0,1700075614,696663618,IMU1_Frame,-2.4129999999999998e-05,-2.4400000000000004e-06,3.1440000000000004e-05,"(0.0, 0.0, 0.0, 0.0, 0.0, 0.0, 0.0, 0.0, 0.0)","$VNYMR,+175.247,+003.579,-000.364,-00.2413,-00.0244,+00.3144,+00.606,+00.042,-09.624,-00.000252,-00.001320,-00.000182*66
"
1700075614.7427123,0,1700075614,721556663,IMU1_Frame,0,1700075614,721556663,IMU1_Frame,-0.03133222562408796,-0.0018773417751710892,0.9986517157256435,0.04134631668636396,"(0.0, 0.0, 0.0, 0.0, 0.0, 0.0, 0.0, 0.0, 0.0)",-0.00049,0.001178,-0.00018,"(0.0, 0.0, 0.0, 0.0, 0.0, 0.0, 0.0, 0.0, 0.0)",0.578,0.055,-9.644,"(0.0, 0.0, 0.0, 0.0, 0.0, 0.0, 0.0, 0.0, 0.0)",0,1700075614,721556663,IMU1_Frame,-2.42e-05,-2.4400000000000004e-06,3.15e-05,"(0.0, 0.0, 0.0, 0.0, 0.0, 0.0, 0.0, 0.0, 0.0)","$VNYMR,+175.247,+003.579,-000.364,-00.2420,-00.0244,+00.3150,+00.578,+00.055,-09.644,-00.000490,+00.001178,-00.000180*6A
"
1700075614.786621,0,1700075614,746530771,IMU1_Frame,0,1700075614,746530771,IMU1_Frame,-0.03134128478753389,-0.0018859676128421391,0.998651788916293,0.041337289319908314,"(0.0, 0.0, 0.0, 0.0, 0.0, 0.0, 0.0, 0.0, 0.0)",-0.001405,0.000564,0.001016,"(0.0, 0.0, 0.0, 0.0, 0.0, 0.0, 0.0, 0.0, 0.0)",0.613,0.071,-9.642,"(0.0, 0.0, 0.0, 0.0, 0.0, 0.0, 0.0, 0.0, 0.0)",0,1700075614,746530771,IMU1_Frame,-2.406e-05,-2.0500000000000003e-06,3.143e-05,"(0.0, 0.0, 0.0, 0.0, 0.0, 0.0, 0.0, 0.0, 0.0)","$VNYMR,+175.248,+003.580,-000.365,-00.2406,-00.0205,+00.3143,+00.613,+00.071,-09.642,-00.001405,+00.000564,+00.001016*63
"
1700075614.7866418,0,1700075614,771712779,IMU1_Frame,0,1700075614,771712779,IMU1_Frame,-0.03134126832816829,-0.0018862411170759996,0.9986521496141684,0.04132857443743557,"(0.0, 0.0, 0.0, 0.0, 0.0, 0.0, 0.0, 0.0, 0.0)",-0.000979,0.001413,0.001178,"(0.0, 0.0, 0.0, 0.0, 0.0, 0.0, 0.0, 0.0, 0.0)",0.601,0.084,-9.638,"(0.0, 0.0, 0.0, 0.0, 0.0, 0.0, 0.0, 0.0, 0.0)",0,1700075614,771712779,IMU1_Frame,-2.42e-05,-2.4400000000000004e-06,3.15e-05,"(0.0, 0.0, 0.0, 0.0, 0.0, 0.0, 0.0, 0.0, 0.0)","$VNYMR,+175.249,+003.580,-000.365,-00.2420,-00.0244,+00.3150,+00.601,+00.084,-09.638,-00.000979,+00.001413,+00.001178*6B
"
1700075614.8306293,0,1700075614,796552419,IMU1_Frame,0,1700075614,796552419,IMU1_Frame,-0.031359058605509534,-0.0018942312062994236,0.9986515905676818,0.041328222659007034,"(0.0, 0.0, 0.0, 0.0, 0.0, 0.0, 0.0, 0.0, 0.0)",-0.000929,0.001643,0.000151,"(0.0, 0.0, 0.0, 0.0, 0.0, 0.0, 0.0, 0.0, 0.0)",0.607,0.047,-9.644,"(0.0, 0.0, 0.0, 0.0, 0.0, 0.0, 0.0, 0.0, 0.0)",0,1700075614,796552419,IMU1_Frame,-2.4069999999999998e-05,-2.51e-06,3.166e-05,"(0.0, 0.0, 0.0, 0.0, 0.0, 0.0, 0.0, 0.0, 0.0)","$VNYMR,+175.249,+003.582,-000.366,-00.2407,-00.0251,+00.3166,+00.607,+00.047,-09.644,-00.000929,+00.001643,+00.000151*64
"
1700075614.8306649,0,1700075614,821528911,IMU1_Frame,0,1700075614,821528911,IMU1_Frame,-0.031359058605509534,-0.0018942312062994236,0.9986515905676818,0.041328222659007034,"(0.0, 0.0, 0.0, 0.0, 0.0, 0.0, 0.0, 0.0, 0.0)",0.000196,-0.000101,-0.000337,"(0.0, 0.0, 0.0, 0.0, 0.0, 0.0, 0.0, 0.0, 0.0)",0.622,0.087,-9.663,"(0.0, 0.0, 0.0, 0.0, 0.0, 0.0, 0.0, 0.0, 0.0)",0,1700075614,821528911,IMU1_Frame,-2.4e-05,-1.98e-06,3.158e-05,"(0.0, 0.0, 0.0, 0.0, 0.0, 0.0, 0.0, 0.0, 0.0)","$VNYMR,+175.249,+003.582,-000.366,-00.2400,-00.0198,+00.3158,+00.622,+00.087,-09.663,+00.000196,-00.000101,-00.000337*6E
"
1700075614.8745522,0,1700075614,846532821,IMU1_Frame,0,1700075614,846532821,IMU1_Frame,-0.0313768322683369,-0.001902495099918081,0.9986513917692683,0.041319155684778064,"(0.0, 0.0, 0.0, 0.0, 0.0, 0.0, 0.0, 0.0, 0.0)",-0.000714,0.000408,7.6e-05,"(0.0, 0.0, 0.0, 0.0, 0.0, 0.0, 0.0, 0.0, 0.0)",0.61,0.061,-9.674,"(0.0, 0.0, 0.0, 0.0, 0.0, 0.0, 0.0, 0.0, 0.0)",0,1700075614,846532821,IMU1_Frame,-2.4129999999999998e-05,-2.4400000000000004e-06,3.1650000000000004e-05,"(0.0, 0.0, 0.0, 0.0, 0.0, 0.0, 0.0, 0.0, 0.0)","$VNYMR,+175.250,+003.584,-000.367,-00.2413,-00.0244,+00.3165,+00.610,+00.061,-09.674,-00.000714,+00.000408,+00.000076*60
"
1700075614.875876,0,1700075614,871441125,IMU1_Frame,0,1700075614,871441125,IMU1_Frame,-0.03137719284479757,-0.0019112099772785277,0.9986513751288406,0.04131888186868878,"(0.0, 0.0, 0.0, 0.0, 0.0, 0.0, 0.0, 0.0, 0.0)",-0.000835,-0.001372,0.000355,"(0.0, 0.0, 0.0, 0.0, 0.0, 0.0, 0.0, 0.0, 0.0)",0.605,0.072,-9.611,"(0.0, 0.0, 0.0, 0.0, 0.0, 0.0, 0.0, 0.0, 0.0)",0,1700075614,871441125,IMU1_Frame,-2.4010000000000002e-05,-2.4400000000000004e-06,3.1219999999999996e-05,"(0.0, 0.0, 0.0, 0.0, 0.0, 0.0, 0.0, 0.0, 0.0)","$VNYMR,+175.250,+003.584,-000.368,-00.2401,-00.0244,+00.3122,+00.605,+00.072,-09.611,-00.000835,-00.001372,+00.000355*69
"
1700075614.9187176,0,1700075614,896772861,IMU1_Frame,0,1700075614,896772861,IMU1_Frame,-0.03137753666316892,-0.0019201986752295115,0.9986517189472119,0.041309893170737716,"(0.0, 0.0, 0.0, 0.0, 0.0, 0.0, 0.0, 0.0, 0.0)",-0.000601,-0.000354,-0.000116,"(0.0, 0.0, 0.0, 0.0, 0.0, 0.0, 0.0, 0.0, 0.0)",0.631,0.07,-9.661,"(0.0, 0.0, 0.0, 0.0, 0.0, 0.0, 0.0, 0.0, 0.0)",0,1700075614,896772861,IMU1_Frame,-2.419e-05,-2.31e-06,3.136e-05,"(0.0, 0.0, 0.0, 0.0, 0.0, 0.0, 0.0, 0.0, 0.0)","$VNYMR,+175.251,+003.584,-000.369,-00.2419,-00.0231,+00.3136,+00.631,+00.070,-09.661,-00.000601,-00.000354,-00.000116*6A
"
1700075614.962656,0,1700075614,921737909,IMU1_Frame,0,1700075614,921737909,IMU1_Frame,-0.03136916551317284,-0.001929549558238602,0.9986523340611635,0.04130094390809961,"(0.0, 0.0, 0.0, 0.0, 0.0, 0.0, 0.0, 0.0, 0.0)",-0.000716,-0.001161,0.00068,"(0.0, 0.0, 0.0, 0.0, 0.0, 0.0, 0.0, 0.0, 0.0)",0.627,0.069,-9.688,"(0.0, 0.0, 0.0, 0.0, 0.0, 0.0, 0.0, 0.0, 0.0)",0,1700075614,921737909,IMU1_Frame,-2.4069999999999998e-05,-2.57e-06,3.173e-05,"(0.0, 0.0, 0.0, 0.0, 0.0, 0.0, 0.0, 0.0, 0.0)","$VNYMR,+175.252,+003.583,-000.370,-00.2407,-00.0257,+00.3173,+00.627,+00.069,-09.688,-00.000716,-00.001161,+00.000680*6C
"
1700075614.9626994,0,1700075614,946539402,IMU1_Frame,0,1700075614,946539402,IMU1_Frame,-0.0313688050932507,-0.0019208346725091937,0.998652350861634,0.041301217654137884,"(0.0, 0.0, 0.0, 0.0, 0.0, 0.0, 0.0, 0.0, 0.0)",0.000865,-0.000175,0.001826,"(0.0, 0.0, 0.0, 0.0, 0.0, 0.0, 0.0, 0.0, 0.0)",0.587,0.047,-9.661,"(0.0, 0.0, 0.0, 0.0, 0.0, 0.0, 0.0, 0.0, 0.0)",0,1700075614,946539402,IMU1_Frame,-2.419e-05,-2.31e-06,3.143e-05,"(0.0, 0.0, 0.0, 0.0, 0.0, 0.0, 0.0, 0.0, 0.0)","$VNYMR,+175.252,+003.583,-000.369,-00.2419,-00.0231,+00.3143,+00.587,+00.047,-09.661,+00.000865,-00.000175,+00.001826*60
"
1700075615.006668,0,1700075614,971619606,IMU1_Frame,0,1700075614,971619606,IMU1_Frame,-0.03134230022009312,-0.001913206308722475,0.9986531815060933,0.04130160924578905,"(0.0, 0.0, 0.0, 0.0, 0.0, 0.0, 0.0, 0.0, 0.0)",0.000984,3e-05,0.000143,"(0.0, 0.0, 0.0, 0.0, 0.0, 0.0, 0.0, 0.0, 0.0)",0.608,0.08,-9.699,"(0.0, 0.0, 0.0, 0.0, 0.0, 0.0, 0.0, 0.0, 0.0)",0,1700075614,971619606,IMU1_Frame,-2.42e-05,-2.4400000000000004e-06,3.143e-05,"(0.0, 0.0, 0.0, 0.0, 0.0, 0.0, 0.0, 0.0, 0.0)","$VNYMR,+175.252,+003.580,-000.368,-00.2420,-00.0244,+00.3143,+00.608,+00.080,-09.699,+00.000984,+00.000030,+00.000143*61
"
